,Time,Position X,Position Y,Position Z,Velocity X,Velocity Y,Velocity Z,Filtered Acc X,Filtered Acc Y,Filtered Axx Z
0,84.3345,0.0,0.0,0.0,0.0,0.0,0.0,-0.0003467365308475333,0.0009247982164352924,5.9954527709025073e-05
1,84.3413,-3.5216124919381107e-07,9.307322007123828e-07,6.175108377183497e-08,-0.00010357683799820465,0.0002737447649154726,1.8162083462308774e-05,-0.002759704086675498,0.007285259871864891,0.00048475638311388743
2,84.348,-2.5376842883294556e-06,6.665433132803843e-06,4.503753766361629e-07,-0.0005488180990576943,0.0014381062595907074,9.784516813906899e-05,-0.010793123751815122,0.028157077259132992,0.0019407401346486688
3,84.3548,-1.0709052678144912e-05,2.790243355374914e-05,1.9313276675205637e-06,-0.0018545255450062542,0.004808070334806473,0.0003377290350623303,-0.028367201308186905,0.07291371699532331,0.005253773639867455
4,84.3615,-3.260576420742041e-05,8.414195751513815e-05,5.988469399630931e-06,-0.0046818062547684496,0.011979847265584972,0.0008733580491480468,-0.05769321595689588,0.14539008038276086,0.011050393219948483
5,84.3683,-8.214045166398209e-05,0.00020948416902078238,1.5397214346978045e-05,-0.009887219467753196,0.024885509059613384,0.0018939198765429467,-0.0984257325293204,0.24167205404617312,0.01955794330185187
6,84.375,-0.00017548598603847734,0.0004415108602829935,3.360437886217721e-05,-0.017977119151519737,0.044376189824679974,0.0035410546056100787,-0.14782506952763066,0.35161042888308525,0.030579668285909446
7,84.3818,-0.0003372942962372704,0.0008355041199100651,6.607983334997425e-05,-0.029613560318724978,0.07150418065389838,0.006010549655508998,-0.20117103987136484,0.46200286741330343,0.04348457113324562
8,84.3885,-0.0005856289430766332,0.0014270477808808139,0.00011743372087506476,-0.0445161850065128,0.1050760166509334,0.009318969008708463,-0.252454273862176,0.5598999823072328,0.05722136480078246
9,84.3953,-0.0009504661925592661,0.0022770323460497683,0.0001952827727604566,-0.06278888837053377,0.14491944369241444,0.013577810957540914,-0.2955743107023553,0.6350702687141291,0.07050834648530392
10,84.402,-0.0014395254102648543,0.0033928709415036434,0.0003030562958571693,-0.08319893781034687,0.1881667042045112,0.018593389966874728,-0.3256931018789549,0.681345633109687,0.08216231719509165
11,84.4088,-0.002080752872227235,0.004828664774945655,0.000449157448716182,-0.10539737453157516,0.23412559974912328,0.024377537344609942,-0.34007471657417876,0.6970376291671154,0.09131382572643149
12,84.4155,-0.0028615655837604596,0.006549370530817015,0.000633250303304105,-0.1276810468217987,0.27951790946658805,0.030575553577198794,-0.33822444518835143,0.6846720473537384,0.0973493874280732
13,84.4223,-0.0038045996569855242,0.008601414213502427,0.0008634981709610371,-0.14968191589094276,0.3240243501456525,0.03714440749824423,-0.32161799273427644,0.650149692125629,0.09966140210019966
14,84.429,-0.004875159608813798,0.010910105639003851,0.001134057049615958,-0.16988821898340542,0.36513726940752134,0.04361943687641874,-0.2934475257058865,0.6012983775523172,0.09743389450988478
15,84.4358,-0.0060929755661785195,0.013523101386867466,0.0014518928938891621,-0.18829294494748106,0.4033908917290211,0.049861693792193226,-0.2585406349114156,0.5459910014587723,0.08978171086042029
16,84.4425,-0.0074075142910969265,0.01633989314850907,0.001804256518186515,-0.20410667443143823,0.43744246995566244,0.055321477639930186,-0.22281806187814115,0.4905148610850512,0.07641023268872929
17,84.4493,-0.00884243772885802,0.019419850183707503,0.0021957247256514,-0.21792963079251457,0.46842724627938814,0.0598162304380049,-0.1917552532006619,0.43876980870334237,0.05839483500320602
18,84.456,-0.01034223042255805,0.022649773661353113,0.002607136874018339,-0.22976968075911466,0.4957290157030445,0.0629933660892699,-0.1686474606320015,0.39227666664737515,0.038314918263081865
19,84.4628,-0.01194122621039517,0.026104969359098784,0.0030420392001955805,-0.24052319801662161,0.5205050130459274,0.06491908278642014,-0.15386830095683482,0.3507964563891499,0.019440509315943974
20,84.4695,-0.01358565962667193,0.02966543851888985,0.0034796308975409383,-0.2503524486335206,0.5423216018178638,0.06570530448094751,-0.14532710846055558,0.31328501473419856,0.004491520800627126
21,84.4763,-0.015320359885488414,0.03342033432071144,0.00392634300966181,-0.25985350984203903,0.5620595163652227,0.06568061084875215,-0.13962542550486362,0.2786876756869636,-0.005232123656712999
22,84.483,-0.017091420481713703,0.03724390883655207,0.004364730950446862,-0.26882129500060115,0.5793060107498075,0.06518146102720178,-0.13334758705262803,0.24628336732705636,-0.009961642484757418
23,84.4898,-0.01894857573787725,0.041235567518994785,0.004805584158469583,-0.27740083916527947,0.5947112487924507,0.06448124721480612,-0.12396712720280603,0.21574519140445816,-0.01103892742851047
24,84.4965,-0.020832926748598643,0.04526446907505942,0.005235245110720499,-0.28509199985644756,0.6079459321232538,0.06377575345720417,-0.11014634304819262,0.18710917176146752,-0.010435801609757099
25,84.5033,-0.02279443428745671,0.04943791998573405,0.005666563205518727,-0.2918219821607699,0.6195396298401684,0.06308250971877588,-0.091696953092209,0.16060499089458996,-0.01035572426144649
26,84.51,-0.024767382706575934,0.05362152131384517,0.0060866742276031805,-0.29711784444116995,0.6292965875047111,0.06232376553014131,-0.0695053343410674,0.1363898723848021,-0.012739910086385881
27,84.5168,-0.026800803954036338,0.05792917070534403,0.006506911571829292,-0.30094722834144577,0.6376591158776111,0.06127545335992132,-0.04534422003625233,0.11441617947802665,-0.01870070509701586
28,84.5235,-0.028824498719568103,0.06222447663245366,0.006912293904667209,-0.3031407613699757,0.6445217578874065,0.05973419823357625,-0.02142536781139517,0.09447777041024137,-0.02821400656479236
29,84.5303,-0.030888262216202216,0.06662657828570966,0.007310727011045098,-0.30384850234608596,0.650214022482316,0.05745200952465468,0.00019904581349508056,0.07624265594242985,-0.04023260601059154
30,84.537,-0.032922026074523845,0.07099791913924801,0.007685390186634573,-0.30324518670430833,0.6546638442437478,0.054387744382496696,0.018165453931668414,0.05920675883332549,-0.053041449103357625
31,84.5438,-0.03497840341124177,0.07546118343025444,0.008041878768593743,-0.30157167703640336,0.6580609472290486,0.05046183854669608,0.03202586786063869,0.042677976203961306,-0.06470295770227522
32,84.5505,-0.036990781478533616,0.07987772833695841,0.008364760431808081,-0.2991381937974278,0.6603106667134118,0.045920747487506096,0.04204763401384781,0.025801887463474817,-0.07352462969081619
33,84.5573,-0.03901462661047584,0.08437162499308343,0.008659799711335464,-0.29611037442101706,0.661423643911911,0.040855511197039056,0.048761675047783594,0.007578138830191674,-0.07839018113137972
34,84.564,-0.04098741011767396,0.08880256248665357,0.008916222204201362,-0.29278022474303744,0.6612442646174673,0.03568851652418114,0.05260571654271022,-0.0130383171829349,-0.07888946783243228
35,84.5708,-0.04296624106603575,0.09329337294360177,0.009141418863382537,-0.28922887771523537,0.6595823403648529,0.03054579499957133,0.053905052344174545,-0.03680553885027398,-0.0753492532694941
36,84.5775,-0.04489229266271402,0.09770151345046635,0.009330213467303021,-0.2857118974130339,0.6562804975061465,0.02581080318568927,0.053149330786617,-0.06370021326109303,-0.06878053541518878
37,84.5843,-0.04682330240081376,0.10214650172737991,0.009491054761981525,-0.2822321432046726,0.6510689957040391,0.021495459955058683,0.05121425107941339,-0.09260134207931532,-0.06064374272715299
38,84.591,-0.04870320056020069,0.10648510827145669,0.009622629368839107,-0.27893148646348376,0.6440374353646142,0.017780542092009917,0.049255396456933845,-0.1214343618206662,-0.0524357192082186
39,84.5978,-0.0505888592466862,0.11083405348333812,0.00973246132679576,-0.2756740095606405,0.6350640975393239,0.014522974954004605,0.04844172152025142,-0.14769087538402992,-0.04526410507066326
40,84.6045,-0.05242505369581954,0.11505412485367283,0.009820430174132666,-0.2724437364497172,0.6246586995764487,0.011736382460016851,0.04988549828743748,-0.1690420501454995,-0.0395577917975163
41,84.6113,-0.05426580591232649,0.11926179629022096,0.009891785268019369,-0.26895397428775136,0.6128917229380065,0.00925040985960645,0.054778238653572106,-0.18386903385317385,-0.0350006366041895
42,84.618,-0.05605469383253922,0.12332684694789652,0.009946518175871189,-0.26504241980599635,0.6005562345779818,0.007087771588710087,0.06428670233135317,-0.1916144728849453,-0.03082853675823453
43,84.6248,-0.057840761086207886,0.1273670439182945,0.009988221476540394,-0.26027147833197245,0.5877369920099517,0.005177905078706455,0.07880172038135799,-0.19285580607741584,-0.02645151750278738
44,84.6315,-0.059565193943494944,0.1312628680453104,0.010017579083784393,-0.25448459846942273,0.5751955832170625,0.0035855597702362813,0.09734679360041096,-0.1888957724203559,-0.02201834302569424
45,84.6383,-0.06127117173414835,0.1351322809660499,0.010037362170391499,-0.24727357525228805,0.5628670405301242,0.002232995114208083,0.1189237148311848,-0.18085760582272017,-0.018547307234694013
46,84.645,-0.06289895458056476,0.1388649689180692,0.010048356059469493,-0.23863175203655143,0.5513681690286993,0.0010487628195241206,0.1441272476399256,-0.16915987778806704,-0.017499882939102568
47,84.6518,-0.06448567439040748,0.142577650045952,0.010051250959899699,-0.2280505449761249,0.5405968685841491,-0.0001973215165221333,0.17322064625407638,-0.15388923098154633,-0.019872246478677084
48,84.6585,-0.06597218506029272,0.1461678172889493,0.0100449658774376,-0.21568398334721442,0.5310948457419211,-0.0016788225020127339,0.20320870872423175,-0.13534559732571005,-0.025223591564470894
49,84.6653,-0.06738987214468542,0.1497509262935712,0.010027122041347092,-0.20128280618015115,0.5227607438530151,-0.0035693645834319137,0.22870640431181224,-0.11460789728398078,-0.031476891133783234
50,84.672,-0.06868636181255416,0.15323042335850845,0.009995797242334938,-0.18572903497498236,0.5158950964275298,-0.0057813216888597035,0.2447393470574889,-0.0943775353238604,-0.035853512532429146
51,84.6788,-0.06989345721926406,0.15671881461647352,0.009948317896868536,-0.16929902582213244,0.5101023323859779,-0.008183191683614598,0.24802379154665377,-0.07935703559165459,-0.0361825396769052
52,84.6855,-0.07097436452267895,0.16011946867090238,0.00988602454989127,-0.1533598707191813,0.5050182808749637,-0.010411837264797375,0.23715277202429236,-0.07539788241995674,-0.03165584934132035
53,84.6923,-0.07196619676131628,0.1635350985524768,0.009809045821186111,-0.13835549358598478,0.4995787431177595,-0.01222896529554866,0.21285330528039795,-0.08774284823086745,-0.022842824600273346
54,84.699,-0.07285017076417948,0.16685948006351334,0.009723358065524912,-0.12551734308979043,0.49277394674462394,-0.013349469230201657,0.17793087996228016,-0.11939032155136758,-0.011264519545161512
55,84.7058,-0.07366804904796616,0.17017749534799012,0.009631437671928374,-0.11503509331811572,0.48311290163113707,-0.013685940651139553,0.1364491212337041,-0.1703603942291068,0.0011731853353328077
56,84.7125,-0.07441355946939437,0.17336942672891775,0.009541263707581195,-0.1075053309885054,0.4697024359578822,-0.01323166064648884,0.09275149749356444,-0.23784465862411983,0.012654775439992017
57,84.7193,-0.07512830582540093,0.17650052932624868,0.009455180171699636,-0.10271418548406148,0.45121009266908146,-0.012087026377504978,0.050942877495228384,-0.31677129042141666,0.021674698736868694
58,84.726,-0.07580928318525627,0.17944469091049434,0.00937955864533662,-0.1005626383535038,0.4276441115840015,-0.01048656358162073,0.014548689430664936,-0.40056044053992695,0.027042252344694262
59,84.7328,-0.07649305400695991,0.18225261270791332,0.009314469983176511,-0.10054642685349512,0.3982152405982551,-0.008657160583122008,-0.014062479742560412,-0.4820600557485619,0.027824568174130232
60,84.7395,-0.07717201837814316,0.1848065775177094,0.009262096367128743,-0.10212950484271865,0.3641623145637032,-0.006976754654996148,-0.0341252901684099,-0.554486833108836,0.02332579508831141
61,84.7463,-0.07787560555555124,0.1871506211238161,0.009218793225882519,-0.10480790027735305,0.3252622754678496,-0.005759463358602217,-0.046204217168749326,-0.6121896537007749,0.013182783466103652
62,84.753,-0.07858856499264766,0.18919083051993757,0.009181389809534387,-0.10801581228889667,0.2837554547181141,-0.005405735551296009,-0.05144234665155181,-0.6512484975740092,-0.0024155601797890354
63,84.7598,-0.07933469357889905,0.19097059960613916,0.009141802736309155,-0.11143377190274042,0.23970604122365857,-0.006237521279657496,-0.05106791315848035,-0.6698662410282211,-0.022531069024154145
64,84.7665,-0.0800920174323824,0.1924293481370651,0.009092533494711596,-0.11463305003275497,0.19574128144112352,-0.008469715018132436,-0.04631584143865256,-0.6683898291199623,-0.04541532338278301
65,84.7733,-0.08088111660804367,0.19361104775451565,0.009022016676676207,-0.11745494280836874,0.15181742957309902,-0.01227052558047291,-0.038317388401739594,-0.6489591087089379,-0.06857726934866325
66,84.78,-0.0816753327201653,0.19448912570499005,0.008922461079477152,-0.11962449364602383,0.11029539146423094,-0.017447563135685205,-0.02772219858448048,-0.6149422481725996,-0.08900807782296367
67,84.7868,-0.08249356136297993,0.19510475891674142,0.008781974637114495,-0.12103098953480641,0.07077320022739414,-0.023871978735694688,-0.014460938511953137,-0.5703936099634705,-0.10367076765467083
68,84.7935,-0.08330588478322949,0.19545895851655773,0.008598487985214695,-0.12145361352494195,0.034958023598443515,-0.03090015615980862,0.0015965643407604914,-0.5197949356853698,-0.11026196270532111
69,84.8003,-0.08412941640676964,0.19558468327274314,0.008363633608312408,-0.12076156986927895,0.0020198458678667083,-0.0381746605761746,0.019158969064188007,-0.46807547189774207,-0.10791245184614125
70,84.807,-0.08493257528262087,0.19550040415205094,0.008085270946617498,-0.1189873482949322,-0.02717779234311319,-0.04491867127293749,0.03484707585444236,-0.42067990315774895,-0.09737044510837206
71,84.8138,-0.08573269954178095,0.19522443699286562,0.007759637508395419,-0.11634331616397232,-0.05398901918199897,-0.0508558693806381,0.04445181919188164,-0.38343311735540936,-0.08069594224708801
72,84.8205,-0.08650237904974532,0.19478068549927247,0.007403329355083354,-0.11341176084048653,-0.07847411323396702,-0.05550477339916135,0.0447826432738628,-0.36187575969234415,-0.0608133950744016
73,84.8273,-0.08726458854432004,0.1941652205659706,0.00701435873539959,-0.11076750226977897,-0.10254498479603436,-0.0588983500372673,0.03452304307487233,-0.36004947537693005,-0.040965578980322
74,84.834,-0.08800136268846688,0.1933967878131439,0.006612586451740582,-0.10916507807225945,-0.12683792649520093,-0.06103367493540543,0.01425361167965136,-0.3794104204897422,-0.024032194709346172
75,84.8408,-0.08874364533376973,0.19244381914685152,0.006193470030216278,-0.10915334701686474,-0.15344697535556592,-0.06223586080706647,-0.013901777933141707,-0.4186389481820985,-0.012023347183185018
76,84.8475,-0.08948168274435936,0.19131745423071142,0.00577450015299426,-0.11115632778617401,-0.18278135782083252,-0.06282977418467335,-0.047067534447430705,-0.4742788248790933,-0.00605495431683474
77,84.8543,-0.09025222075363087,0.1899593872387734,0.005345818311011827,-0.11547249847020845,-0.21665011039632945,-0.06325312051607244,-0.08238156039053997,-0.5415010608438626,-0.006641902090002978
78,84.861,-0.09104784608087936,0.1883805854406385,0.0049197646804393196,-0.12202759921557758,-0.25463400844926076,-0.06392706771435111,-0.1171510517810234,-0.6147018250254309,-0.013872572082380956
79,84.8678,-0.09190777475809457,0.18650137789281454,0.004480408470878014,-0.13089259996542696,-0.298074093852037,-0.06529534686253459,-0.14872497741559615,-0.6881381566912569,-0.027164381778873727
80,84.8745,-0.09282034452300593,0.1843452681530385,0.004035024971314866,-0.1415162850829432,-0.34554075384277494,-0.06765495151462281,-0.174652454104155,-0.7567132692341778,-0.04466030836901503
81,84.8813,-0.09382434926825808,0.18181719637493501,0.003562788055423716,-0.15377922822658469,-0.3980097691290196,-0.07123825904163124,-0.1931334853782203,-0.8169192474241542,-0.06280900873031518
82,84.888,-0.09489830295098643,0.17896513631268293,0.0030701297390941587,-0.16680396064710493,-0.45335144348236495,-0.07582392493713787,-0.20333012115567256,-0.8676420239601178,-0.07677540502913566
83,84.8948,-0.09607888018800588,0.17568081273181527,0.0025365470137452195,-0.1804246384763447,-0.5126260803024713,-0.08111217075376441,-0.20517652632162664,-0.9101023343885725,-0.08182783018933737
84,84.9015,-0.09733204508922084,0.17204202329973448,0.0019758727131132855,-0.1936544365134728,-0.5735797203194677,-0.08625329212156364,-0.19752913197368901,-0.9452831869665754,-0.07466425374009605
85,84.9083,-0.09869043358922867,0.1679252173939535,0.0013749732697023757,-0.20587159290068935,-0.6372455460869902,-0.09048183829345234,-0.16888358698321013,-0.9641601879683174,-0.05215683710701273
86,84.915,-0.10009777725583578,0.16344760111450313,0.0007620171035834211,-0.21423099414562813,-0.6993563283739588,-0.09249015159255003,-0.08557065123291481,-0.9264479224399428,-0.008974793693771518
87,84.9218,-0.10155390262157148,0.15850172947714983,0.00013859767406456172,-0.21404117224732494,-0.755311800259713,-0.09086850414833508,0.09126372379991626,-0.7517491918761734,0.05761068165261287
88,84.9285,-0.10293847049773228,0.1533177741748958,-0.0004487976571130115,-0.19926267138307163,-0.7921375436978562,-0.08447338575554783,0.35858334888063853,-0.3692002898810764,0.13705218130390487
89,84.9353,-0.10417860392032302,0.1479122360102512,-0.0009844978528844345,-0.16548245290841182,-0.7977266223744711,-0.07308549535373211,0.6545412527827571,0.20157457981769863,0.20448947970638975
90,84.942,-0.10511635261747157,0.14268166449384045,-0.001425984469045452,-0.11444253131524229,-0.7636380093910821,-0.05870155424666908,0.8990777190893542,0.8360585944246134,0.23334747412652718
91,84.9488,-0.10567437373927815,0.13773957468171621,-0.0017749471514240062,-0.049681328039330355,-0.6899178177015907,-0.043934528805657104,1.0432178383307815,1.3749318376188007,0.20954003350963768
92,84.9555,-0.10577334980175654,0.13345560026801376,-0.0020309894663317406,0.020136234762177352,-0.5888805147478511,-0.03249601295790219,1.0819791986648841,1.7005719217115631,0.13864026685959482
93,84.9623,-0.10539634632326624,0.12984420435664196,-0.0022312695285749994,0.09074714126440823,-0.47329475330293086,-0.02640988770189406,1.0357586299648451,1.7660361646064564,0.04389269189827078
94,84.969,-0.10457215123274825,0.12704192607160533,-0.0024082853107711987,0.15528124396502263,-0.3632062273056373,-0.026430644297010503,0.9286136331350915,1.5849803972551997,-0.04452450791518037
95,84.9758,-0.1033224464534224,0.12488913917800808,-0.0026048085233384382,0.21227898524778452,-0.26996638845709076,-0.03137030057560014,0.7808428636015615,1.2114365253664574,-0.10362395072619494
96,84.9825,-0.10174692250235201,0.12329336102845533,-0.002840204306380363,0.25802667178849903,-0.20638529797691751,-0.03889709734741454,0.611684231080028,0.72392672243943,-0.12548639852797686
97,84.9893,-0.09987303976298431,0.12199596657083273,-0.0031319002349817888,0.2931153103786027,-0.17520130720629265,-0.04689582282949603,0.4406820530864526,0.21133271797727293,-0.11440860315555702
98,84.996,-0.09782935620929153,0.12081854938496445,-0.0034674356690143765,0.31693948176894704,-0.17626650947106584,-0.05326400822508191,0.28450880743644197,-0.24375671855908923,-0.07943443849020382
99,85.0028,-0.09562446462637036,0.11952641652777982,-0.003841991958815444,0.3315580426197889,-0.20377256617156506,-0.056899606422317374,0.15392600168154066,-0.5811953982819689,-0.029603162262596745
100,85.0095,-0.09338010576314965,0.11801215701486553,-0.004223474566133739,0.338399826997412,-0.24824519887685154,-0.05697579874716572,0.05433305669313827,-0.7725199630114776,0.02728392199536586
101,85.0163,-0.09107423376091311,0.11614348739000556,-0.0045982526734659425,0.3397978207193781,-0.3013635143173886,-0.053253056350567644,-0.012404913636358442,-0.8205861387768909,0.08436727737381886
102,85.023,-0.0888042129149484,0.1139513032643971,-0.004930879902947053,0.33782034225566515,-0.3530198067602473,-0.04603865394237467,-0.04778812667003797,-0.7517947240992651,0.13523400927056414
103,85.0298,-0.08651890261231547,0.11139694780373255,-0.00520886861582704,0.3343297467541842,-0.3982612110824494,-0.035722732198817476,-0.05690060350080849,-0.6050697901728032,0.17415753936823994
104,85.0365,-0.0842903279733079,0.10861561840622767,-0.005407346806517201,0.3309164141426769,-0.43198637026114245,-0.023524488902641215,-0.046998817521145396,-0.4215001083265169,0.1971483250778221
105,85.0433,-0.08204829710596462,0.105603448575209,-0.005521963501013648,0.32850442919374173,-0.45394593297985875,-0.010186303596321868,-0.025340598887341255,-0.23710348385542604,0.20288590458573932
106,85.05,-0.07984989091200165,0.10252721191521873,-0.005546667622052165,0.32773622572106514,-0.4643336670179171,0.002811939107206774,0.0019570306498835647,-0.07909176434513102,0.19277137377306724
107,85.0568,-0.07761766914853828,0.09936479348186165,-0.0054864019149777595,0.3287995870624358,-0.4657894016167386,0.014913268855857966,0.029934934057464925,0.03543187692714442,0.17016751279442424
108,85.0635,-0.07540539104786698,0.09625884918298643,-0.005352426303915457,0.3315819355250997,-0.4613581502850357,0.02507945086417734,0.0547577775105549,0.0994522671537893,0.13928384893552986
109,85.0703,-0.07313603968541732,0.09314593060361648,-0.005154290100269144,0.3358743475484909,-0.45420613776517116,0.033195903149458,0.07397875581398843,0.11504841290293792,0.10414197421636538
110,85.077,-0.07086802077274798,0.09012546921347135,-0.004912935587592008,0.34114622339808076,-0.4474241279504594,0.03885022003780006,0.08649340169758069,0.09139115022070782,0.06797141695860692
111,85.0838,-0.06852799072159678,0.08709810275770331,-0.004637293124014954,0.3470979092936152,-0.44297777080506157,0.042221092779000005,0.09200749836800771,0.041962451833806966,0.033126629691033194
112,85.0905,-0.0661823309082544,0.08413273696678802,-0.004350622776318221,0.353099049912096,-0.4422060473773829,0.0433521453393098,0.0906629608862251,-0.018471738665516525,0.0013018071291608262
113,85.0973,-0.0637615482846744,0.08111496566115868,-0.004058656761733933,0.35889583937631137,-0.44537374839616595,0.04252021189138381,0.08319233911028828,-0.07653285212038219,-0.026252866687071545
114,85.104,-0.06133995084850508,0.07810910985490485,-0.0037820173887951536,0.363969066943422,-0.45189664153101566,0.04005870540383528,0.07123310573487991,-0.12201938325673993,-0.04867364297577759
115,85.1108,-0.05885040359692065,0.07500551791487294,-0.003522557052594641,0.3682507129345291,-0.46092451730211903,0.0362531581845692,0.05718053648173484,-0.14874153711228702,-0.06546100992832903
116,85.1175,-0.0563720471755805,0.07188392543330233,-0.0032952643123342566,0.3715571740316574,-0.47089413391170065,0.0315954209975414,0.04346579152775311,-0.15472651345339578,-0.07631720277005591
117,85.1243,-0.05383690885762385,0.06864822467087721,-0.0030982568051745227,0.37407174301459595,-0.4807825609194451,0.026347963461217795,0.03195028966502618,-0.1418437612715526,-0.0810627244859349
118,85.131,-0.05132447740030723,0.06539875000048483,-0.0029394227037143885,0.37590779648345735,-0.4892098780043728,0.02106520115378267,0.02393787421836762,-0.11467778689003054,-0.07974080907240158
119,85.1378,-0.048763280553502576,0.062050192606923085,-0.0028134496432469856,0.37738539375338703,-0.4956599436316699,0.01598569898369774,0.020377710852208547,-0.07877034531373514,-0.07260185906564018
120,85.1445,-0.04623015789005572,0.05871632827062488,-0.0027209366571533267,0.37877062518653426,-0.4995234403386793,0.011630117760698454,0.02178775037489438,-0.03883175113185428,-0.05997894063698345
121,85.1513,-0.04364886402138654,0.05531540373301206,-0.002653457883927809,0.3804334538324078,-0.5007484824867718,0.008216580246770053,0.02808322990740739,0.0020907117204140135,-0.042398693085214365
122,85.158,-0.04109263735687555,0.051965256719256725,-0.0026053826473841036,0.38261928184307953,-0.4992954022170538,0.0061342366319585735,0.038451822667665225,0.04214001991513613,-0.020986367960036494
123,85.1648,-0.03848065925969734,0.0485838599422491,-0.0025657965568903762,0.3856095702683439,-0.4952330616089577,0.00550873116031696,0.0512318711183078,0.07969629128237074,0.0022264247029919835
124,85.1715,-0.03588439296762277,0.045286966062914845,-0.002525952858397072,0.38939529303807174,-0.4889143650587124,0.006384910180976687,0.06400284190061764,0.11264034505128863,0.024443842545918727
125,85.1783,-0.03322086929635406,0.04199076848245059,-0.0024749302935146004,0.3939940220411479,-0.480555511548654,0.008621726549165609,0.07392064408555107,0.1380554915991838,0.04264197851576359
126,85.185,-0.03056436357688368,0.038803044881211335,-0.002406494436106107,0.39899275988921323,-0.4710037724020489,0.011806887602595337,0.07823738660374936,0.15269266571173354,0.054312062293898025
127,85.1918,-0.027833828569025026,0.03563499157041951,-0.002313456140168646,0.404105771834114,-0.4607766131251838,0.015557317084899805,0.07511029508349659,0.15403674979795612,0.05816951855131389
128,85.1985,-0.025110979369541174,0.032580284520257886,-0.0021968202425691964,0.4086850339825621,-0.45107623767000465,0.019259368765707868,0.06427919316283642,0.1412357912058241,0.05451830593241636
129,85.2053,-0.022319315186206758,0.029542062468092482,-0.0020545607984072457,0.41239266699834626,-0.4425184835553293,0.022581644223111277,0.0469188508950533,0.11542540342403357,0.045122227829164044
130,85.212,-0.019548387031480704,0.02659863767726809,-0.001894702443130009,0.41475006575455753,-0.4361157823611863,0.025137267799878533,0.02483869334850848,0.0794682746210934,0.03266913920052592
131,85.2188,-0.016725290291805677,0.0236462881670784,-0.0017177892687559044,0.4155725047382976,-0.43222230887128427,0.026896018780753022,-0.00017238846894887625,0.03730343250990176,0.020078710499150058
132,85.2255,-0.013943895147106014,0.02075374948273878,-0.0015342831266527653,0.4146947026353502,-0.43122207451431566,0.027881934085896166,-0.026547284252313293,-0.006857008910523353,0.009931851330052588
133,85.2323,-0.011132971047169251,0.01781509521177179,-0.0013430969189554202,0.41204767969919087,-0.4330880051820659,0.028349303472160078,-0.05284130998670816,-0.04910533680118614,0.004085329276505356
134,85.239,-0.008386599662363797,0.014898534669273253,-0.0011523402794467994,0.40776467397294663,-0.4375270821297282,0.028592976978095815,-0.07753034312739741,-0.08601701347288952,0.0033319192212708025
135,85.2458,-0.00563382429747749,0.01190058078455704,-0.0009567235153966761,0.40187513922910345,-0.4442240604340762,0.02894136538960137,-0.09910654114304819,-0.11483643814201439,0.0071168252383152315
136,85.2525,-0.002965000307139499,0.00889689955197588,-0.0007605404423250658,0.39478873848431895,-0.4523972030236497,0.029620745975101767,-0.11659846575608487,-0.13394821886021577,0.013563037383108822
137,85.2593,-0.00030838989525162593,0.005789168284331205,-0.0005553171100379095,0.3865672650123024,-0.46164140510735696,0.03073905763878226,-0.12997711641995183,-0.14330068528104503,0.01997697834093802
138,85.266,0.0022518960282759595,0.0026644969348916764,-0.0003445632479568123,0.37769718977099576,-0.4710963111419604,0.03217254298235388,-0.14002167563622653,-0.14449994085789863,0.02365729765620214
139,85.2728,0.004787601384568883,-0.0005712770043155963,-0.00012054221595588066,0.368098503256514,-0.4806019062721724,0.03371599584146541,-0.14785880266118515,-0.1405885729151489,0.02263340541449031
140,85.2795,0.007220567068641388,-0.0038216975316999477,0.00010961732437577717,0.35815990989999513,-0.4896728780223817,0.03498834455609521,-0.15466492211029256,-0.13552536622395542,0.016095986014482554
141,85.2863,0.009620193854700091,-0.007181963242619362,0.0003498682992178733,0.3476126742350873,-0.498640566365919,0.03567370686806772,-0.16166411346641835,-0.13343043368311486,0.0044591628467696
142,85.293,0.011912688529886094,-0.01055270041003023,0.0005881726813079122,0.3367140944762071,-0.5075496328598161,0.035461929576621753,-0.1700809157439655,-0.1377552244157721,-0.010905513223716006
143,85.2998,0.014162555313584126,-0.014036722307354454,0.0008248884082678412,0.32501143014102013,-0.5171626898828495,0.03416034305866824,-0.18090133595108143,-0.15055624919219385,-0.028131218392489922
144,85.3065,0.016298799554991503,-0.017537213047912652,0.0010456768942446997,0.3126734180407582,-0.5277599192397734,0.03174666768074125,-0.19465899164785075,-0.1720158877603122,-0.04533934625645347
145,85.3133,0.018378957920662794,-0.02116818606207955,0.0012494996798016183,0.2991378659803569,-0.5401733202213359,0.028201210424249213,-0.21129459328159958,-0.2002825310367004,-0.0609947786513713
146,85.32,0.02033461365745615,-0.02483488994559371,0.0014235812148740354,0.2846399658986891,-0.5543651524702681,0.023763426910839148,-0.2300111908205376,-0.23170676556359468,-0.07408820040277037
147,85.3268,0.022215832413326597,-0.028660494352125834,0.0015672296669371859,0.26865966817983067,-0.5708126141547469,0.018486117813538726,-0.2492643583589926,-0.2615798033177376,-0.08418702452085333
148,85.3335,0.0239590199005281,-0.03254512779466362,0.001671765246331416,0.25169480561204866,-0.5887794582454506,0.012718532751926182,-0.2671340121282455,-0.285318173259897,-0.09137416942123516
149,85.3403,0.02560828395621483,-0.03661515266582304,0.0017369953060201197,0.23338285782534085,-0.6082866803311371,0.00646677892122657,-0.28207157755751155,-0.299735668826586,-0.09612626412914127
150,85.347,0.027108594684725314,-0.040757111392581855,0.0017588195243901325,0.21447109098409053,-0.6281189097470354,4.791312952832048e-05,-0.2935891765945955,-0.3039433125138394,-0.09925945278814093
151,85.3538,0.028499426205566957,-0.045096736371574,0.001736338879596864,0.1945970033803425,-0.6482413781894704,-0.006659867480477412,-0.3024675689244649,-0.29956278501115247,-0.1019179778327172
152,85.3605,0.02973575965165184,-0.04950486152765375,0.001668911032904815,0.17445775664526902,-0.667616877357697,-0.01346784794999982,-0.31055680161083166,-0.290213651896184,-0.10531211358263276
153,85.3673,0.030850543408890294,-0.05410937336387796,0.001552914826789453,0.15341981901317886,-0.686651309767396,-0.020648683260409036,-0.32040573047934445,-0.28066044613343993,-0.1100530096159094
154,85.374,0.031806360377326606,-0.058771214268644165,0.001389750339313061,0.13189867902772145,-0.7049429901638447,-0.028057133896758922,-0.33468248937005,-0.27612531693769643,-0.11545496730761956
155,85.3808,0.03262504032491763,-0.0636280840812677,0.0011723382223144435,0.10888954085204824,-0.7235481311963644,-0.03588760639696752,-0.35539960605315596,-0.28187362293306517,-0.1193938492730405
156,85.3875,0.0332733255611658,-0.06854020417759166,0.0009056525061084835,0.08462844011728712,-0.7427563751669718,-0.04372007008231356,-0.3830910734660225,-0.30281168451878016,-0.11902078378657675
157,85.3943,0.03375823849479565,-0.07366411819826268,0.0005821490079053112,0.057993010950349824,-0.7642771603248719,-0.05142801762452474,-0.41574948421508634,-0.3426322431733017,-0.11215330673042342
158,85.401,0.034051776394993793,-0.0788667386900391,0.00021435515248972647,0.02963024284020452,-0.7887438819975955,-0.058361192947372825,-0.4475930377810306,-0.4021173916957488,-0.09888762712426045
159,85.4078,0.03414936706395524,-0.08432984069526399,-0.0002031031807848688,-0.0009271049103604934,-0.8180508254218776,-0.06442066978047886,-0.46887234242083037,-0.47684629543879725,-0.08284610137232383
160,85.4145,0.03404004744238407,-0.08992435665801439,-0.0006516383931439915,-0.03170561794665805,-0.8519539395759347,-0.06947043838623851,-0.4680037398007157,-0.5551404261518215,-0.07086526934627177
161,85.4213,0.033722386937010844,-0.09585032138656296,-0.001139807655156734,-0.06172394245725488,-0.8909768629387721,-0.07410875632342623,-0.43229544225504,-0.6152215629920036,-0.06824555422719299
162,85.428,0.03322370694227456,-0.10195510695436416,-0.0016514367900544924,-0.08713575746413331,-0.9313471871524838,-0.07861635857154005,-0.34122216263239097,-0.61362244070733,-0.0689626575358168
163,85.4348,0.03257367709846141,-0.10841142951871258,-0.0021997478556795126,-0.10404949071625305,-0.9675712141269174,-0.08265160190644597,-0.16604866146097835,-0.4727960182688082,-0.05206096163817393
164,85.4415,0.03186964989718532,-0.11495859581057812,-0.0027588916921986147,-0.10610788279870767,-0.986806783442184,-0.08425700600947342,0.10339266805377006,-0.1127210532718191,0.003193600675901697
165,85.4483,0.031208519895155044,-0.12162819062970145,-0.003320695333546125,-0.08834211779847903,-0.9748387515945662,-0.08097935909277522,0.4294319968489751,0.47166211540284725,0.09510844936454187
166,85.455,0.030745055244340243,-0.12797873050510258,-0.0038313681630794162,-0.0500055391612657,-0.920844793302699,-0.07146029151429023,0.7375062355838204,1.171875636033328,0.19464520861220036
167,85.4618,0.030597138446615837,-0.1339018984476889,-0.004265605099459675,0.006500598654076754,-0.8212634251054579,-0.0562564544799344,0.957206260389232,1.8147342363571375,0.2613430008998772
168,85.4685,0.030861903533906245,-0.1389573096497221,-0.004584566000567791,0.0725337557608611,-0.6878145456486414,-0.03895575480593874,1.0527961544111772,2.2473548975433113,0.2652780126347784
169,85.4753,0.03159074799766965,-0.14310877809244185,-0.004796502546964908,0.141832262993134,-0.5332055845633442,-0.023378523546169427,1.0255806502927618,2.389623463938723,0.20190890703866848
170,85.482,0.03275275332473758,-0.14617216051788762,-0.004920671646897288,0.2050349988184446,-0.3812369304957687,-0.013686879418747784,0.8982657504737412,2.2361944589644294,0.09309785854794313
171,85.4888,0.03432835762347991,-0.14830292955719393,-0.005006017798476753,0.25837803022352956,-0.24545984577094776,-0.011414929869336309,0.7015799546194658,1.835984795294719,-0.02495833529490376
172,85.4955,0.03618849530307975,-0.14960520519971532,-0.00509825352494678,0.2968869487607299,-0.1432791519960967,-0.016118122808245622,0.47060418199472054,1.274322968747209,-0.11820351821442503
173,85.5023,0.038288061106247,-0.15036065621872038,-0.005240106231234005,0.3206324051121394,-0.07891232418191395,-0.025603261393889267,0.24156131289050914,0.6561446165497503,-0.1662714699657423
174,85.509,0.04046769805442167,-0.15080783467083994,-0.005448162332226684,0.3300054898658545,-0.05457378092850265,-0.03650303740994168,0.04374873155685001,0.08470335824984455,-0.165509972464253
175,85.5158,0.042704571908928526,-0.15121004209470376,-0.005729279989778454,0.3278985849892607,-0.06372252020793975,-0.04617862657589298,-0.1069382921999515,-0.35908917506020543,-0.12467694349564429
176,85.5225,0.04486693697424035,-0.15174576888649643,-0.006058714022299849,0.31758352405952295,-0.0961959251034236,-0.05215989059474541,-0.20704483818561825,-0.6293782118814725,-0.05738848617987394
177,85.5293,0.046973543547689255,-0.15255262746940046,-0.006417262721793638,0.3020066446007738,-0.14111542280908693,-0.053295609256173965,-0.2601315303926157,-0.7178317907422052,0.023326405814046245
178,85.536,0.04893831330679547,-0.153648385706092,-0.006760101325495286,0.284491790953753,-0.18597658814384746,-0.04904427244588646,-0.2730081780198008,-0.6477102279136926,0.10608126798545371
179,85.5428,0.05081302206747013,-0.15503893268497382,-0.007061141977728799,0.26689313865657477,-0.2230078174097301,-0.039497095858109066,-0.25480450062720594,-0.4629175623490241,0.1802543424475536
180,85.5495,0.05254937916060535,-0.15660777947060736,-0.007279948087610618,0.2514224115334257,-0.2453046559140631,-0.025818160823079316,-0.21611344785172493,-0.21578236962219144,0.23612272714951985
181,85.5563,0.054215607514769136,-0.15829539403986945,-0.007398565381007286,0.23864475145604244,-0.2510525703396091,-0.009069278411243172,-0.16710970346685355,0.04339291284159292,0.26620394769207706
182,85.563,0.05578337227284498,-0.15994256291190206,-0.00740067585866676,0.22934472856595114,-0.2406396302664625,0.008439285080057795,-0.11597638972952964,0.2735695891685703,0.2667442928454865
183,85.5698,0.057321998618157954,-0.16149723900045654,-0.007285973128599101,0.2231924318203274,-0.2166180428379073,0.025296811998673372,-0.06854116140474575,0.4468775332540894,0.2388408103788753
184,85.5765,0.05880668362956914,-0.16283890395485506,-0.0070694290216251,0.21999712382512962,-0.18387895847538296,0.03934321993391221,-0.028721745107600886,0.5496769480158488,0.18872187337263122
185,85.5833,0.06029952078828058,-0.1639610352506668,-0.006766183854968646,0.21907262873716624,-0.1461596579399148,0.04984653496506624,0.0009946089306904435,0.5815872372257151,0.12628990978281346
186,85.59,0.06176956193420006,-0.16481538537072643,-0.006411487936520747,0.219745623775504,-0.10887022864469645,0.05603284367595133,0.01949088216918291,0.5534765127735615,0.06201693472367609
187,85.5968,0.06326909665607881,-0.16543803065134946,-0.006022949241467199,0.22129400030659063,-0.07426073624447631,0.05824324310453138,0.026947489964462206,0.4845193849749493,0.004276598643405208
188,85.6035,0.06475741894084654,-0.16583851387340498,-0.00563676834536229,0.22298130857962445,-0.04528649421994291,0.05703463632985501,0.024412975776005152,0.3974359687917672,-0.04106573068081895
189,85.6103,0.06627805620195881,-0.16606597207116125,-0.005261492300829464,0.2242649446887977,-0.021612975708385433,0.0533406708857087,0.014085393403059024,0.31257199133982344,-0.06972240030674315
190,85.617,0.06778221642554766,-0.16614954232372792,-0.004920462772717045,0.22473810712814735,-0.0033333683413288503,0.0484591882521863,0.00031733527683163175,0.2438462772880164,-0.0788664649101556
191,85.6238,0.06930923106805739,-0.1661220697864107,-0.004607623702460161,0.2243838465512951,0.011413526375810393,0.043552302999860584,-0.010942195683750672,0.19843747665754444,-0.06829913647278653
192,85.6305,0.07080977819561679,-0.16600411906138013,-0.004327914546734651,0.22354066913840914,0.02379564527512808,0.03994296736602501,-0.014723526057659014,0.17846543058615727,-0.04156647737508889
193,85.6373,0.07232713728310632,-0.16580144132966876,-0.004061665582720911,0.2227414154174423,0.035815452287053066,0.038365551461564326,-0.009247414458606346,0.18202845432350875,-0.005742833577505016
194,85.644,0.07381889235847988,-0.1655190649336719,-0.0038019170473864417,0.22255860708151476,0.04847600920442323,0.039171324757573206,0.003682858517932369,0.20334990848109968,0.03027000056030453
195,85.6508,0.07533492854640002,-0.16513992446830006,-0.00352553868415251,0.22333438936569044,0.06303589237555748,0.04211642913477916,0.019584134803102445,0.23332506000930223,0.05805854892057469
196,85.6575,0.07683701292384436,-0.16466317870586764,-0.00322909847419507,0.22504900688668222,0.07927627551482325,0.046373185777954976,0.03260760505399093,0.26102067109800914,0.07151410074363714
197,85.6643,0.0783752183732129,-0.1640632561981621,-0.002897986890411289,0.22736436057476317,0.0971715208692025,0.05101257415847466,0.03683368007880134,0.2756873236985456,0.06762882719514154
198,85.671,0.07990562843017306,-0.16335229641799168,-0.00254365053764281,0.22947446239778746,0.11505527918137225,0.054759471443910225,0.027396321114308824,0.2686815807752781,0.04642406565012269
199,85.6778,0.08146929682370294,-0.162512847801161,-0.0021648447493527725,0.23042800628758178,0.13184137282771216,0.05665399570024533,0.0012020366565599484,0.23476112051127254,0.010395849057681148
200,85.6845,0.08300858006238995,-0.16158468426387718,-0.001788098119716896,0.22905952764917945,0.14522236964527274,0.05580768478815919,-0.04285755470712259,0.172546921300151,-0.03615695228977122
201,85.6913,0.08454955826258893,-0.16056802762706143,-0.0014226429667882085,0.224169354762393,0.1537942882417815,0.051679124896774745,-0.10380681520236026,0.0845390895583523,-0.08766538469540887
202,85.698,0.08602044015503553,-0.15953084565866713,-0.0011011951724321485,0.21489986686378,0.1558122694880914,0.04427544058271716,-0.17834981453571055,-0.023113173309124452,-0.13769750876191875
203,85.7048,0.0874319552342773,-0.1584899791279706,-0.0008360903519027457,0.20025162703009006,0.15032494542208033,0.03369656545519831,-0.2609751163459102,-0.14146074774867262,-0.17958044660808042
204,85.7115,0.08870695996648878,-0.1575270308494525,-0.0006529369268957052,0.18034680049600518,0.13712230189697414,0.020976098726048293,-0.34491366972378046,-0.2604183464820386,-0.20762152832834296
205,85.7183,0.08984618824941978,-0.15666615773223938,-0.0005586184471864948,0.15472034154260467,0.11607567375400311,0.0067646306001967246,-0.4236662030998138,-0.3708048283976751,-0.21860389691146256
206,85.725,0.09078201026960321,-0.15598054414166002,-0.0005607346893363957,0.1246295152287755,0.0885850995534176,-0.007396344674794468,-0.4922771835908481,-0.4659887303017438,-0.21244613531238155
207,85.7318,0.09151158143916026,-0.1554925111670315,-0.0006568319002121778,0.08995024052289863,0.05495401063117461,-0.020867540876853864,-0.5478116008748177,-0.5426632295232611,-0.1915773110235378
208,85.7385,0.0919891284885926,-0.15525016446984732,-0.0008353204706606768,0.052601117516712606,0.017388287035795882,-0.0324126294063196,-0.5890691833025853,-0.6008107227896803,-0.15984698610393772
209,85.7453,0.0922103475955073,-0.15527279803037278,-0.0010875996678042818,0.01246332569350822,-0.024045216602103466,-0.0417871344594644,-0.6147295542051879,-0.6418485542707937,-0.1213099195236377
210,85.752,0.09215840030999244,-0.1555773649023245,-0.0013894128336545829,-0.027969978086016645,-0.06687026756265248,-0.048306347883975705,-0.6160315027582076,-0.6617155885981655,-0.07713030808359982
211,85.7588,0.09183417258013661,-0.15617957646588124,-0.0017291228651377956,-0.06739111893042674,-0.11025078054231471,-0.051608367258169786,-0.5662736870400593,-0.6393377176568844,-0.0219027122526869
212,85.7655,0.09127333251721527,-0.1570472002555946,-0.0020715827498089387,-0.1000238252249683,-0.14874139549116377,-0.05061846398680636,-0.4270427213732234,-0.532289270724542,0.052034664941874274
213,85.7723,0.09052413406507176,-0.15815243983495134,-0.0023938700800674026,-0.1203286606996457,-0.1763290690256033,-0.04417192726570582,-0.1819328649615685,-0.29511066990536605,0.14130762953063689
214,85.779,0.08971257259424115,-0.15935703094746057,-0.002649565147952078,-0.12192849477235847,-0.18325036754458018,-0.03215495867007473,0.1332350517669142,0.08443125752727394,0.22448036174759287
215,85.7858,0.08894873206335571,-0.16052987282798462,-0.002811992004540132,-0.1027304848998827,-0.16170312672728065,-0.015617646208776134,0.44254500481775,0.5618061191299443,0.2715009804839414
216,85.7925,0.08838336965282025,-0.1614362104936458,-0.002858040824391011,-0.06603441376718683,-0.10884543018612641,0.0018717298353984613,0.6744573440344778,1.047144631425515,0.26086320778734173
217,85.7993,0.08810075157033621,-0.16189440560274054,-0.002794203568328088,-0.017088551669311877,-0.02591783719471641,0.016903933712524535,0.7935099835948451,1.439990988474366,0.1899774395743883
218,85.806,0.08816154119400142,-0.16172659792785626,-0.0026518709964942293,0.035234707987296374,0.07600968044379197,0.02558340116328565,0.7991728876808818,1.6626102737542205,0.07421938668118978
219,85.8128,0.08857219123369986,-0.16083094042950186,-0.0024762959570811724,0.08554471545345144,0.18741899554286012,0.026056316311155302,0.709707414915921,1.6787392816373636,-0.060035879515141194
220,85.8195,0.08928409060661495,-0.15922573511907342,-0.0023285092507048673,0.12696256004329837,0.2917467687634695,0.018059118427979366,0.5510223652276234,1.4969240561773518,-0.18339314555518743
221,85.8263,0.09024987884730053,-0.1569403936288726,-0.0022572241343769444,0.15709280486429333,0.3804124930604627,0.0029070922567089232,0.35263349197738314,1.1623076085607884,-0.2710411705128735
222,85.833,0.09135711047139185,-0.15418208796097482,-0.0023015248393924445,0.17342409784977642,0.44296233317828615,-0.016131183306121684,0.1444794702973077,0.7416651104651519,-0.3084704192953124
223,85.8398,0.09254743026771177,-0.1510510641661096,-0.0024794188054917798,0.17666995989146242,0.47792701825288375,-0.03619057142898957,-0.047130701209141236,0.3069836028361175,-0.29314379515498756
224,85.8465,0.09370367489341097,-0.14782377597931165,-0.002779705901284027,0.16847768957050918,0.4854425897451765,-0.05344736761334851,-0.20223619035391513,-0.07821494312044322,-0.232140827329256
225,85.8533,0.0947914158981839,-0.14457337937566056,-0.003185146036973897,0.1514461353627821,0.47055641132890613,-0.06579973111899481,-0.3085682789942013,-0.36824615924298737,-0.13832697665037463
226,85.86,0.09573225842909834,-0.14152061474341515,-0.0036442320380802675,0.1294023813283007,0.4407166132226388,-0.0712408662262918,-0.36242794141997564,-0.5400561070546673,-0.027297312481513188
227,85.8668,0.0965293560983763,-0.1386522190131768,-0.004122163300976762,0.10503810963586285,0.4029291897888457,-0.06932715227271076,-0.3682968486442611,-0.593251196536809,0.08469275793648819
228,85.8735,0.09715552986253989,-0.13607795568047085,-0.004557231082603638,0.08187943190524738,0.3655076259432061,-0.06054382731722207,-0.3366368574156458,-0.5458346353537767,0.18266541701733538
229,85.8803,0.0976423077974693,-0.13370281866660047,-0.00491931378565228,0.06129054895637637,0.3330620840188357,-0.045951085344168946,-0.2808577822924025,-0.42726080991515314,0.25499504126882266
230,85.887,0.09799842380981172,-0.13154815084389337,-0.005166660615216357,0.04501273831009809,0.31012234067032557,-0.027883789152624995,-0.21462721555258163,-0.27100868901158265,0.29496062593133776
231,85.8938,0.0982631903152811,-0.1294823270116576,-0.005288680276715978,0.032859763298561516,0.29747290410505234,-0.008004346582566244,-0.1498605978351376,-0.10836882718394791,0.30125672388211533
232,85.9005,0.09845638307669198,-0.12749725463252656,-0.005278610321522464,0.024809717719654886,0.29508601503897713,0.01101030335675171,-0.09517707356869681,0.03571361884787461,0.27753571872196353
233,85.9073,0.0986080470993181,-0.1254702355893932,-0.00514609987666837,0.019797347758531814,0.3010960564697333,0.027963356894380235,-0.05515218863104712,0.14453746019917785,0.23091438574187953
234,85.914,0.09873121808664169,-0.12341388561314562,-0.004914651724154744,0.01697011114405826,0.3127397573359654,0.041125643856007026,-0.030906886404942175,0.20988852643875613,0.16973628335211338
235,85.9208,0.09884070024687977,-0.12123721715965095,-0.004604191822629827,0.01523052422009123,0.32745684663320884,0.05018609188663768,-0.021266201543705218,0.23150131368614812,0.10200153293259981
236,85.9275,0.0989378266928276,-0.11899401411798789,-0.004252825537893069,0.013762444719578727,0.34215600162491777,0.054699366243815335,-0.02342109602686931,0.21593052697451173,0.03537933380277312
237,85.9343,0.09902496253565016,-0.11662308767806683,-0.003879377042986425,0.011865744345887762,0.3551753042343874,0.0551384263758122,-0.03346408403826122,0.17453988339446597,-0.02221119453602208
238,85.941,0.09909556701990886,-0.11421093510403561,-0.003519348893261405,0.009210221104443986,0.36487024025154646,0.05233266309419449,-0.04736815784938592,0.12056708497768523,-0.06319424749501627
239,85.9478,0.09914582090660576,-0.11170866697209521,-0.003179983684569034,0.005570333806412266,0.37109097502522115,0.047480633580056365,-0.061798080127562986,0.06600303576799602,-0.08232613960543242
240,85.9545,0.09916818350691292,-0.10921293787782368,-0.0028795437553602006,0.0011050692703592699,0.3739027844593668,0.04220292737787078,-0.07412140174264524,0.01958644685304045,-0.07832348969924804
241,85.9613,0.09915798943029618,-0.1066697175341704,-0.0026075321274129366,-0.004103327098816184,0.37410319896825167,0.037800492606637925,-0.08208701652985076,-0.013575684381688958,-0.05371280773619305
242,85.968,0.09911223499500857,-0.10416819112597825,-0.002361674246424463,-0.009554713285524253,0.37262110198359655,0.03558991962862594,-0.08384930818007352,-0.03153829545283169,-0.013575464074153363
243,85.9748,0.09902888257414956,-0.10164190868594628,-0.002117178540688704,-0.014960704614189912,0.37040314508481204,0.036320582058379354,-0.07828530961580271,-0.034981898940620565,0.03548923836337636
244,85.9815,0.09891284857736801,-0.09916697663617582,-0.0018604438265566062,-0.019676309350477074,0.368382541414375,0.04031664604081098,-0.06525435019288638,-0.02652384203695891,0.08614811181530094
245,85.9883,0.09876648040131276,-0.09666607955347176,-0.001561633722261491,-0.023373154195192723,0.36717542408699705,0.0475686787518911,-0.04562013877832909,-0.009679602365810334,0.13135233914165376
246,85.995,0.09860252172960299,-0.09420573972295204,-0.0012102909116333813,-0.02556973288228508,0.36725437606712596,0.0573097721817281,-0.021242156753215762,0.012082844580259712,0.16515962809786405
247,86.0018,0.09842677093571131,-0.09170298923122104,-0.0007811122880902391,-0.02612167708586769,0.3688487097362875,0.0689192347427559,0.004688437545788894,0.03573385810624008,0.18302734829752282
248,86.0085,0.09825529224574434,-0.08922134344652372,-0.00027917655530026574,-0.02506599156102652,0.3719410767410733,0.08091232728421266,0.027445880229955907,0.058395597752279725,0.18203387284507966
249,86.0153,0.09809266371113702,-0.08667684015401383,0.0003099344706218774,-0.02276593038231178,0.37644224458554254,0.0923556215164594,0.04153675726348848,0.07660186778717097,0.1611694406402623
250,86.022,0.09794933842447567,-0.08413678971545627,0.0009598268515357087,-0.020017737277733507,0.3817817669231314,0.10164210412919245,0.04211628945677248,0.08592940078565506,0.1215044961277506
251,86.0288,0.09782094650287709,-0.08152168929664172,0.00167226682295688,-0.017744592604209058,0.3873654150813337,0.10789906393590841,0.026059077544340985,0.08153343905212676,0.06615207325051568
252,86.0355,0.0977040708154863,-0.07891085080238414,0.0024024716941049105,-0.017143672288592992,0.3919893593244933,0.11007253939202316,-0.007767489826670302,0.05921614043024011,6.9763349007115555e-06
253,86.0423,0.09757994877786146,-0.07623674699218405,0.0031429531193353597,-0.01936280936578082,0.3945117613227816,0.10771611508757314,-0.05878810006831286,0.01643486584338114,-0.07068003715559179
254,86.049,0.09742998650540412,-0.07359688885679706,0.0038415809974030944,-0.025402048084108342,0.39350559252299105,0.1008295201562387,-0.12504203829330246,-0.047061929668383046,-0.13894302265586073
255,86.0558,0.09722003562512961,-0.07094101377837699,0.004489029088661735,-0.03634821082017391,0.38763413642427696,0.08959638903752506,-0.20325147970268534,-0.1290327461448035,-0.19795715158713745
256,86.0625,0.0969223484372381,-0.0683828298388039,0.005040914719065531,-0.052513636311685916,0.37600286046378006,0.07514559018761025,-0.28881259383145463,-0.22501503518498364,-0.2419149044651563
257,86.0693,0.09648987694889626,-0.06588882108900879,0.0054942279515895216,-0.07468386025947521,0.35752912477025006,0.058181831143007325,-0.3761090769014196,-0.32904284131401995,-0.2668562758535712
258,86.076,0.09589755927688443,-0.06357741479717487,0.005824797649219502,-0.10212738511732158,0.3324429026433725,0.04049569053765695,-0.4592523332128923,-0.4345639474967752,-0.27149728594632105
259,86.0828,0.09509060799150945,-0.06142676267312852,0.0060401570560372365,-0.1352112282278197,0.3001018397220296,0.022845311467441926,-0.532986819943892,-0.5353979997318054,-0.25786676414401033
260,86.0895,0.09406071593941051,-0.059543979388790635,0.006139380644129678,-0.17221923508552273,0.26192302127477096,0.006773670052711976,-0.5935106308867361,-0.6267381245380221,-0.23134258868523688
261,86.0963,0.09274990525301251,-0.05791397328116858,0.0061365746720336315,-0.21331331973751202,0.21749053979065386,-0.00759895596331411,-0.6389689096171177,-0.7058654564092348,-0.1997162281269307
262,86.103,0.09117686329866338,-0.056619332248681875,0.006044887690703805,-0.2562514427551117,0.16896946990715567,-0.019770292194863516,-0.6680370663804809,-0.7710814579571773,-0.17077060437831687
263,86.1098,0.0892823374135249,-0.0556502888823,0.005874424706953438,-0.3009620528728225,0.11604328491051406,-0.030365879496328005,-0.6729080521218841,-0.8162623341617883,-0.1470085767189306
264,86.1165,0.08712256515831034,-0.0550531533602148,0.005641631810660292,-0.34374608301259746,0.062206124667288996,-0.03912453730764779,-0.6294074460899708,-0.8225025960097927,-0.1195987478821192
265,86.1233,0.08465677895112494,-0.054809132518711313,0.00535384197942134,-0.381485154395044,0.009564711069049603,-0.04551953070382912,-0.5024496995400684,-0.7563004310553373,-0.07219767705830601
266,86.13,0.08201495971201792,-0.05489235779010014,0.0050411301780506545,-0.40711760354793797,-0.03440807566274866,-0.04782727567554895,-0.27778385208852013,-0.5821999737287995,0.0019515587573286516
267,86.1368,0.07921617524003373,-0.05522469506111496,0.004726156920586193,-0.4160542999770195,-0.06333818051810337,-0.04481191769637383,0.009757550935621695,-0.2854617016877827,0.08848401239849403
268,86.1435,0.07646174072356114,-0.05566850434370991,0.004453340189510719,-0.4061649586703784,-0.06914220234587899,-0.036625912475296944,0.29126697640886534,0.10879139845636718,0.16069217397292523
269,86.1503,0.07379044987612503,-0.05606581233914258,0.0042448249508247075,-0.37950881998749086,-0.04771309042846551,-0.02470209890295654,0.5081946938951066,0.5339030971880542,0.19692270897544847
270,86.157,0.07137381742978821,-0.05622742211395608,0.004121952204365525,-0.34187399981507577,-0.000528633396494449,-0.011976332875930838,0.6373825091600827,0.9023582710536444,0.19044057282548962
271,86.1638,0.06919867136103353,-0.05599977143766335,0.004079022945944442,-0.2978748439364555,0.06748471465907964,-0.0006499196008612606,0.6822249204511822,1.1374744851580159,0.14925728751214754
272,86.1705,0.06735002427963614,-0.055290649607605116,0.0041009676211975375,-0.25396010573364375,0.14419344356696578,0.007200568930134349,0.6545085283257289,1.1974847549671233,0.08970600905031352
273,86.1773,0.06576158309398683,-0.05405161627643188,0.004163337139355571,-0.21322847828097263,0.22022812442525042,0.011143406998703535,0.5671003215117889,1.0829210338509367,0.02854622341049671
274,86.184,0.06444336752998416,-0.0523655117776814,0.0042387556037045485,-0.18026870500369857,0.28308665132153393,0.011369567433843685,0.436171773620685,0.8304478915250902,-0.0216620603523855
275,86.1908,0.06329908238429947,-0.05028975632386593,0.004307583981159013,-0.1562857496095223,0.3274296586243392,0.008874072993944894,0.283116710219724,0.4994722107949127,-0.053181943758252276
276,86.1975,0.06229758382298181,-0.048023845814119975,0.004354297040064458,-0.14266904481324727,0.34896153831381904,0.0050701236942284,0.1313661150960005,0.15594291801769714,-0.06260757189134737
277,86.2043,0.06134241412812626,-0.0456494032705848,0.00437590706626104,-0.1382632183796303,0.34940391566728285,0.001285766363591474,0.0007719039018533502,-0.1426752897947138,-0.05089156121904312
278,86.211,0.060405571289770255,-0.04336343060851425,0.0043763721998880635,-0.141391360234309,0.3329759834587603,-0.0011469205047784452,-0.09599032078881102,-0.3573793018096196,-0.023157699699677632
279,86.2178,0.05941574055862515,-0.04119312210295768,0.004367355482164347,-0.14973532539667414,0.30535004758744244,-0.0015050552963151208,-0.15425898969909402,-0.47116818956326706,0.012416645189045082
280,86.2245,0.05837608858167617,-0.03925276825594795,0.004363775644411286,-0.1606085483190092,0.2738600559967513,0.00043644701182057703,-0.17671419541174127,-0.487364794661272,0.046681306486695405
281,86.2313,0.057244499907466724,-0.037493903950512886,0.004380213255849589,-0.17221164997796834,0.24345297501368562,0.00439814458768155,-0.17128200701398186,-0.42459383674379697,0.07213655377865055
282,86.238,0.05605554005599761,-0.03594363306932817,0.004426967823443905,-0.18270173852053795,0.21931445220597381,0.00955844275391557,-0.14802883962602273,-0.310165657715291,0.08493925827845379
283,86.2448,0.05478318970056796,-0.03450712134862869,0.004511251145474127,-0.19151895425297777,0.20318899505868104,0.01523076960792034,-0.11641403789442127,-0.17346346271939125,0.0851832022609622
284,86.2515,0.053477991574687606,-0.03316930626791743,0.0046309891766635695,-0.1980924266071177,0.19615879022855803,0.02051192626955168,-0.0836777930035976,-0.04053098043993658,0.07557145657921241
285,86.2583,0.05211530901437481,-0.03183215061720686,0.004785804594372569,-0.20269656171943337,0.19712228350911803,0.025022020115363905,-0.05440783113641864,0.06942773688936289,0.0596937144977934
286,86.265,0.05074785235525894,-0.03048777983125586,0.004964526044301269,-0.20549945592739563,0.20418242871535772,0.028327666430556047,-0.030910278329944252,0.14547807005948235,0.04092781212831611
287,86.2718,0.049345387028918185,-0.029061908574698245,0.005164286912845888,-0.20699034593763255,0.21519147027227703,0.03042553020022834,-0.013803977999637144,0.18470128773290329,0.021990590770341146
288,86.2785,0.04795675021016709,-0.02757880332205909,0.005371081880020199,-0.207528107421209,0.22752651559048478,0.0313043107473729,-0.0025650997173293634,0.19076873312689513,0.004758865097527225
289,86.2853,0.04654571480749799,-0.025990520111973538,0.005583381799287504,-0.2074823051277605,0.23961560502204923,0.031136841978189597,0.003938786223827134,0.17180304609321076,-0.009781530365273043
290,86.292,0.04515677857772876,-0.024350996825570976,0.005788555998707982,-0.20712552465440512,0.24979433121788397,0.030109187699610115,0.0069213580494472664,0.1380301517982377,-0.021499536178142164
291,86.2988,0.0437499755880495,-0.022625452161020115,0.005987358025832694,-0.20664006054547612,0.25771880541484427,0.02836199674884897,0.007638513206255554,0.09963793108316225,-0.030901609105972307
292,86.3055,0.04236719595674368,-0.02088059792463236,0.0061697425278523345,-0.20612997865059568,0.2631332054475575,0.02608113818242708,0.007888017484982834,0.06517256136191303,-0.03852610610870577
293,86.3123,0.04096754617893509,-0.01907928436934942,0.006337694420616123,-0.20553172070497167,0.26666489904755253,0.023316477336346102,0.010054727417835195,0.04074876873179666,-0.04439064354231566
294,86.319,0.039593403651165635,-0.01728485445984386,0.006483728555305245,-0.20466007862862748,0.2689858202070993,0.020275801675271685,0.016477438467558128,0.029898423370595475,-0.048165364517406155
295,86.3258,0.03820679170566609,-0.015448592008696395,0.006610507282908161,-0.2031669641654542,0.271091371306991,0.017012059384418535,0.028303532883323424,0.03325053527098047,-0.04971966280510806
296,86.3325,0.03685356897706511,-0.013623357728256033,0.006713588846035246,-0.20078011899931586,0.27375468255620655,0.013758556474435312,0.04435033916984269,0.04781876804345526,-0.049314655591405875
297,86.3393,0.035500244160848425,-0.011748814792676735,0.0067961784677162814,-0.19725659165274637,0.2775814749672492,0.010532508725875094,0.061326071482183074,0.06695306328719282,-0.04743985008649381
298,86.346,0.03419360406638025,-0.009872671739267402,0.006856609240663163,-0.19278522759094527,0.28246122754222575,0.007506527974661585,0.07477907562047734,0.08158314017601519,-0.04466885535133559
299,86.3528,0.03290015551096181,-0.007933374912075925,0.006897864128304679,-0.18764081812045366,0.2879201922201104,0.0046272625081402105,0.07951026976948583,0.08214023594498886,-0.0416850763451353
300,86.3595,0.031659436583018764,-0.005988610357557527,0.006919941561529691,-0.18272304096729503,0.29260654047237816,0.0019630160664949976,0.07018337485415668,0.060508877264018046,-0.03941269356281658
301,86.3663,0.030429715200518234,-0.003990691822092128,0.006924392286086228,-0.17895971859177168,0.29501655819405737,-0.0006539794322188435,0.04268488517480513,0.011771538746600321,-0.03907532818216593
302,86.373,0.02923488258217393,-0.0020198935569903545,0.00691109649299874,-0.17770673464484127,0.2932814313877491,-0.003314914026727255,-0.0045449435245290045,-0.06458756668578519,-0.041921631450381205
303,86.3798,0.028018025196143288,-5.154591652805924e-05,0.006878293871187932,-0.18019249654072805,0.28564434521894777,-0.006332915917630385,-0.07000716550015126,-0.1644612740859233,-0.04859323498940428
304,86.3865,0.0267865776091352,0.001813356043357055,0.006824081436982202,-0.18740379808882346,0.2710428069859758,-0.009849900263196631,-0.14949973316465953,-0.27999918175257227,-0.05846127121853971
305,86.3933,0.0254684144041245,0.003579198899148056,0.006742621644035058,-0.2002912622085347,0.24832273883503184,-0.01410886236832222,-0.23701662292487083,-0.4014132257029167,-0.06927204375370198
306,86.4,0.024064512978202272,0.005141636531527524,0.006631945494129666,-0.21878379030498368,0.21807655441192644,-0.018928794319808664,-0.3258828015190953,-0.5192591515185294,-0.07744326240672444
307,86.4068,0.022493398324392223,0.006494685152228042,0.006485466231242922,-0.2433087549333778,0.17987892226479218,-0.024153341823361832,-0.40966143537177857,-0.6263509895935033,-0.07924955508879936
308,86.4135,0.020765028836143087,0.0075518478749957586,0.006306944099139459,-0.2726224355891336,0.1356920397556553,-0.029136846864278636,-0.4826261893074396,-0.7186663386319017,-0.07244479976743526
309,86.4203,0.018795254534872508,0.008302931086073521,0.00609409709696229,-0.30672294713764675,0.08521478703197521,-0.03346521259960945,-0.5401045311886864,-0.7952299257484883,-0.05737004482127129
310,86.427,0.016617082314339098,0.008692028591112412,0.005859485357036159,-0.343477715707249,0.030933721934697303,-0.03656814260212422,-0.5786845259642462,-0.8570471529777264,-0.03708094118755236
311,86.4338,0.01414858639006928,0.008702796773051412,0.005604854050564858,-0.3825504973134606,-0.027766609599696616,-0.03832341812474697,-0.5931727943301456,-0.9034728403403749,-0.01556267377309919
312,86.4405,0.011457887498383721,0.008315671506890778,0.00534717077728769,-0.4206432016977481,-0.0877931713438618,-0.03859696195804672,-0.5663420790090229,-0.923693076671303,0.007236193720081517
313,86.4473,0.00848080756524812,0.0075133349695568254,0.005089812047115808,-0.4549685433423452,-0.14818816316618103,-0.037096782210172194,-0.46313166778540527,-0.8876525805023184,0.037756677200187924
314,86.454,0.005353704605134997,0.006340334062107887,0.004854164255373518,-0.4784950268413675,-0.20196136144570154,-0.033245842190563354,-0.252997784702013,-0.7491653929109492,0.07946320259693379
315,86.4608,0.002076895946684255,0.004828838959084715,0.004650728049878736,-0.4852722256423626,-0.24259602179558593,-0.026588335896026386,0.04973838776270509,-0.46953525319351747,0.12020641818334285
316,86.4675,-0.0011273528655788376,0.003146195246195195,0.004500715271295176,-0.4712199571234473,-0.2596856835449408,-0.01819159800954713,0.37800268799454617,-0.05066191576584975,0.1353843208905454
317,86.4743,-0.004214690687886078,0.0014254820573883166,0.004404288515624138,-0.4368205788494889,-0.24640643081014524,-0.010169212481941421,0.6536915397208816,0.4489286601748439,0.10522028467595466
318,86.481,-0.006977855962836362,-7.359334028264825e-05,0.004350734688683376,-0.3880048763601612,-0.2010787625248022,-0.005817004515312856,0.8322237819600531,0.9308133770515428,0.027257835497959765
319,86.4878,-0.009418848822403979,-0.001188718112225498,0.004304749289860035,-0.3299341999834281,-0.12689911157611491,-0.007708112785673021,0.9094118121565159,1.2939569978142862,-0.08397529913864715
320,86.4945,-0.011430109990311722,-0.00173497000725353,0.004221427212538458,-0.2704422680479049,-0.03616115559620668,-0.01716414910133058,0.901480353095681,1.468041952784585,-0.20385973195301757
321,86.5013,-0.013073235187217775,-0.0016524142676802836,0.004046978238155781,-0.2128298486892856,0.060442255470696746,-0.03414437277593965,0.8264113554008397,1.4292540617423728,-0.30540524984094386
322,86.508,-0.01433131946306778,-0.0009581503564549492,0.0037442561769857777,-0.16271769634084443,0.14680070310418325,-0.056220421603232706,0.698966979433883,1.1994357645124547,-0.36657400113516836
323,86.5148,-0.015297901821145743,0.00027071277424326303,0.0032778494532006604,-0.12157123250568319,0.21462962945420144,-0.08095802656889362,0.5350834993729994,0.8348658798409573,-0.37534767103347294
324,86.5215,-0.01601442386843348,0.0018457341574012703,0.002657723544536535,-0.09231594578886854,0.2555260073087334,-0.10415418497238062,0.3554266552661808,0.4099908231524806,-0.3307269200951014
325,86.5283,-0.016581163369487156,0.0036297655098084178,0.0018846733001089107,-0.07437214275636948,0.269189096340554,-0.1232135339769754,0.1827376645787078,-0.00021219359037137045,-0.24089446781062576
326,86.535,-0.01705541147160202,0.005396392969827071,0.0010193590866723727,-0.06719445488996406,0.2581623842624193,-0.13508921630277926,0.0357460574832022,-0.3354330924371453,-0.1205928697358393
327,86.5418,-0.017516752400397725,0.007050496327149661,8.843544555332155e-05,-0.06849405357939391,0.22833860318551852,-0.13871185461465463,-0.07472317083546083,-0.5590314103989534,0.011943957371862726
328,86.5485,-0.017999906226235894,0.00844622687915438,-0.0008243617157883244,-0.07573096905866632,0.1882973824869568,-0.13376490996456478,-0.1455633977064741,-0.6597949159799842,0.1386375251473635
329,86.5553,-0.018551690945976203,0.009578364219353677,-0.0016904944201834094,-0.0865586543944048,0.14468418815997486,-0.12098000309287452,-0.1791767871723068,-0.6482368885785806,0.24480296951377234
330,86.562,-0.01917131304231937,0.010415890930258317,-0.0024388249196518083,-0.09840316540966253,0.10532378524458047,-0.10240223555457405,-0.18136171781464533,-0.5498658279050332,0.32069108301619953
331,86.5688,-0.019879141380206362,0.011024681849325969,-0.003057843989586514,-0.10978163985126835,0.07373236742241898,-0.07966219677920673,-0.159897542981332,-0.3976130233957224,0.3613202764836355
332,86.5755,-0.02064586155664893,0.011450160000538714,-0.003511564475320426,-0.1190900546088835,0.05327603592449385,-0.05577675418595298,-0.1234439927037446,-0.2250631821701437,0.36573563594802955
333,86.5823,-0.021478774254041724,0.011779975071526293,-0.003811229156449836,-0.12588426815376244,0.0437283967189353,-0.03235991673448298,-0.08032570453593108,-0.06128630293497684,0.3365740348148665
334,86.589,-0.022335161399246135,0.012074184005531672,-0.003960203991226217,-0.12975368563878809,0.04409516567079505,-0.012110183198798197,-0.037456616188362844,0.07245048940150173,0.27981347547874286
335,86.5958,-0.023221715891913294,0.012400839550180367,-0.003987693022287369,-0.13099763573396847,0.051979994520020494,0.004025174063163491,0.00014849618273951007,0.1640285639547695,0.20411256576294678
336,86.6025,-0.024096146598179654,0.012790282151590665,-0.003925106818587368,-0.13002645568846463,0.06427152828886336,0.01465727480248234,0.029413534805903835,0.21011699623739344,0.11952103130818977
337,86.6093,-0.02497142062539059,0.013275479564838549,-0.003807816204674337,-0.12740708172657841,0.07843359325466605,0.019839964583711733,0.049145820981986096,0.21462674655317088,0.035916403890513614
338,86.616,-0.025813050119961076,0.013845135503945085,-0.003675153613325993,-0.12382560322002101,0.09161295573248542,0.019760808953136717,0.059871841691783126,0.1865436891290774,-0.038325845079943334
339,86.6228,-0.02664108819574418,0.014504846527072502,-0.003556140452481399,-0.11971500730448012,0.1024196981285661,0.015243061883517022,0.0634117259575962,0.13756838236392493,-0.09716885883258126
340,86.6295,-0.02742931785785275,0.015214983202715547,-0.0034798230261002057,-0.11557742914601211,0.10956139907847004,0.0075382594243186924,0.0625332152560248,0.07981992351256162,-0.1373598571507788
341,86.6363,-0.0282013044621526,0.015971726622967725,-0.0034620998402050264,-0.11147745447117147,0.1130101951129352,-0.002325557690452065,0.060431803824157374,0.02361517153425016,-0.1584723261951716
342,86.643,-0.028935008979524814,0.016728850546178137,-0.003512980639350649,-0.1075388193714423,0.11299694614407124,-0.012862740561983794,0.0594574519430287,-0.024018460738901737,-0.16227203837862467
343,86.6498,-0.02965264319237062,0.017487843449595936,-0.003636071521890878,-0.103530066759728,0.11023626074357036,-0.023340460185151096,0.060771666644725976,-0.05877905872647733,-0.15197209617382418
344,86.6565,-0.03033250484093806,0.018211384248733996,-0.0038236911155561386,-0.09941370893219569,0.10574606735750315,-0.03266538867019199,0.06452734276292814,-0.07789923963717603,-0.13187210564895036
345,86.6633,-0.03099345359926128,0.018912434377627657,-0.004072825657810872,-0.09498298469192172,0.10044514702260393,-0.040609476698711906,0.06835740262040488,-0.08108412533903347,-0.10638422846842169
346,86.67,-0.031614845404920176,0.019568574359376197,-0.004365249187361132,-0.09050710654967645,0.0954175340965078,-0.04668112913725091,0.0678851498859956,-0.07195284222280016,-0.07843256052112392
347,86.6768,-0.03221567259686524,0.020202805306462505,-0.004697122279077785,-0.0862067734342086,0.09112097975245098,-0.050928603720611865,0.06108895008604875,-0.0569079261470979,-0.04895622468081389
348,86.6835,-0.032780954170157764,0.02080240825036117,-0.0050456960506986195,-0.08253399471293876,0.08786497365026791,-0.05312326840508746,0.050707826294905306,-0.04220258764256194,-0.017847809970275984
349,86.6903,-0.033331675835080454,0.02139150008866336,-0.005407260536366417,-0.07944296555847903,0.08539733173277068,-0.05321922737958459,0.041997248516588745,-0.03180607327204002,0.014969841673938269
350,86.697,-0.03385501717444337,0.021957175945833452,-0.0057568028974172465,-0.07677832977351992,0.08346113309388947,-0.05112177591902623,0.03911237272520869,-0.027130438477519603,0.04887509146823001
351,86.7038,-0.03436778378964192,0.022518478077497957,-0.006089591416770927,-0.07403538057903021,0.08162772916041622,-0.046757200361491634,0.043153208598220284,-0.027856376696028588,0.08202574555489589
352,86.7105,-0.034853314473330996,0.023058715678550192,-0.006381603792747411,-0.07089915186557787,0.07963722637768333,-0.040410673064389,0.05231136652764933,-0.03273311463328197,0.11115803895159157
353,86.7173,-0.0353223455901489,0.023592008201856536,-0.006628811968632656,-0.06705117661030896,0.07721351577127888,-0.03229761396070065,0.06309577332342504,-0.03995797362900584,0.13216601707432565
354,86.724,-0.03575674067664674,0.024099720304425153,-0.006815101976339022,-0.06261899846349367,0.07434233574153173,-0.023311343563510944,0.0718165823514339,-0.04743870776524999,0.1413696730213546
355,86.7308,-0.03616580469355769,0.02459383410976649,-0.006942088441956673,-0.05769394768681639,0.07098525406477892,-0.014037616912277713,0.07589383314028872,-0.05324572206053845,0.13676472171365459
356,86.7375,-0.036535809989551755,0.025057401797751584,-0.007008032444800684,-0.052755394401044355,0.06739316025923235,-0.005647160056098178,0.07443222220779756,-0.05609506277695784,0.11863482725782058
357,86.7443,-0.03687840403132054,0.025503011816377288,-0.0070228432158145684,-0.04800755906038673,0.06366860992482942,0.0012910509343665375,0.06796320936335926,-0.05561035963609946,0.08945359144924481
358,86.751,-0.037186195714748765,0.02591771468056666,-0.006998478996946656,-0.043870555395673444,0.06012328983302167,0.005981850220224144,0.05796424466802636,-0.05230666656711751,0.05333100806143229
359,86.7578,-0.037472667176121625,0.026315263118240593,-0.006950028518996155,-0.040385756772834694,0.056802721247575315,0.008268290353456081,0.04655062752822909,-0.04728267528246031,0.015243111757996624
360,86.7645,-0.03773415039185082,0.026686043739538683,-0.006895134230082762,-0.037668934489668585,0.05387806122954874,0.00811806454607642,0.03614751366359911,-0.04174189898118829,-0.019815878665246006
361,86.7713,-0.03798292291018603,0.027043529992144127,-0.006847580109582007,-0.035499453256000166,0.05126495424266651,0.005868441483560681,0.02891881538709429,-0.03662949986499844,-0.04765403633289841
362,86.778,-0.038214712046002235,0.027379394171538708,-0.006820721341950156,-0.03369133355471176,0.04899300975557691,0.0021491010931002606,0.02611906444592214,-0.03252687710419228,-0.06556004419638252
363,86.7848,-0.0384377044901123,0.02770549142454516,-0.0068217807892206415,-0.03189467941885302,0.04691794701105019,-0.0024607032314784057,0.027765563537885223,-0.029707685352892584,-0.07269560899272823
364,86.7915,-0.038644731610022895,0.028013467054734387,-0.006853978040317982,-0.029904460853012616,0.045015076926100434,-0.007150416499078122,0.0328152764310294,-0.028214328880402647,-0.07005593289362003
365,86.7983,-0.03883986538722717,0.028313208005489587,-0.006917344019914435,-0.027487826560021966,0.043144026237214916,-0.011486636323412812,0.03966358149254747,-0.027901574730201446,-0.05999446880965797
366,86.805,-0.03901453263010394,0.028596067728852217,-0.0070059156893804864,-0.024651648925508314,0.04129171207987107,-0.01495266799477498,0.04666765184461564,-0.028481552964409344,-0.0455090741747632
367,86.8118,-0.039170917708117696,0.02887026720548977,-0.007116102293673906,-0.02134396225502056,0.039355192813545735,-0.017455156797415116,0.05253534007738897,-0.029597861524312524,-0.02954470243842751
368,86.8185,-0.039301915902968644,0.029127290117397984,-0.007237899528045167,-0.017759976506485142,0.0373680644725456,-0.018902226597018134,0.056558641261897774,-0.030888914194710546,-0.01450307475461757
369,86.8253,-0.03940962045983861,0.02937426354015772,-0.007368308541290329,-0.013917834337630209,0.035271177515629144,-0.01945336553392094,0.058673554683646344,-0.03200019247441226,-0.002026493173716125
370,86.832,-0.03948988353933176,0.029603474201472486,-0.007498099199877816,-0.010041293869298059,0.033149915414202355,-0.019290114641477073,0.05932558459474973,-0.03256951966893482,0.006995734421723511
371,86.8388,-0.039544723424881904,0.02982154832269047,-0.00762708766543175,-0.006088084233653819,0.03098953200273349,-0.018647669344903906,0.059237708309942794,-0.03222395065222092,0.012272262191978241
372,86.8455,-0.03957247103537662,0.03002226644840164,-0.0077491494888874786,-0.002194784570745663,0.028926326418555363,-0.01778869586578824,0.05927156895130754,-0.030578562329707213,0.013874280589303853
373,86.8523,-0.03957383649481193,0.030212407983943666,-0.007867179646291082,0.0017931788544794775,0.02699765462323001,-0.016926056311750575,0.060334047562399705,-0.027265493529321762,0.011997705858003988
374,86.859,-0.03954825025315201,0.030387860729595966,-0.007978517122217907,0.0058445052231136385,0.025376299302868267,-0.016309011129117167,0.06298545041265419,-0.022087411162383105,0.006784711362046101
375,86.8658,-0.03949378841991691,0.03055618864162637,-0.008088837924879423,0.010173681022508839,0.02413191011785106,-0.01613828377133669,0.06685368933664088,-0.015233877873403412,-0.0016643156347614836
376,86.8725,-0.039410501679801965,0.030715384625409535,-0.008198572924971033,0.014688032444603118,0.023389279071087683,-0.016618432673874903,0.07055996248972168,-0.007371283877173894,-0.012951076023778778
377,86.8793,-0.03929442151458666,0.030873644296702158,-0.008315984813377078,0.019453192618729017,0.023157683073812864,-0.01791447568085233,0.07235506948069231,0.0004253370159391066,-0.025919396533040828
378,86.886,-0.0391483233091546,0.031029601657942805,-0.008443104227545246,0.024158211987887233,0.02339675311745933,-0.02003161810071854,0.07086237926884104,0.006851785358503391,-0.038524915428824726
379,86.8928,-0.03896859228220786,0.031190685093470723,-0.008589148115782205,0.02870385476116824,0.023980727920175603,-0.022922466674867487,0.06546896291709171,0.01066258447386472,-0.04817641281601408
380,86.8995,-0.03876286552180957,0.0313537363745819,-0.008753784538319404,0.032707118491966745,0.02469129629204804,-0.026222734082437187,0.056387542489359246,0.010966612219468182,-0.05228138368120412
381,86.9063,-0.038529019020103104,0.031523719072644125,-0.008943551797410312,0.03607126436289161,0.02530361490273672,-0.029591165650196254,0.04450875419904267,0.007397835275458852,-0.04874344814089612
382,86.913,-0.03827901550507498,0.03169408453982554,-0.009151187381512636,0.038556650570931515,0.02555174843503839,-0.032389605723677425,0.031144637199521583,0.00015517325802422318,-0.03643908063456687
383,86.9198,-0.038011285439430775,0.03186671530558918,-0.009377350233743646,0.04018748638326567,0.02522200620133785,-0.03412888022663589,0.01776682511055406,-0.010044688017085314,-0.015724637291500896
384,86.9265,-0.03773944216340707,0.03203216696411854,-0.009606507410756115,0.04095976019086145,0.024166548583476683,-0.034276247239678315,0.005740641231610909,-0.022082692431947815,0.011238890053970175
385,86.9333,-0.037460716634590795,0.032190072391124376,-0.009833703135767117,0.0410183365198271,0.02227622406530834,-0.03254602482239712,-0.003983840280345707,-0.03461126518471148,0.0406533408566157
386,86.94,-0.03718755373324206,0.032330420181344154,-0.010039823911608684,0.04052282806194488,0.01961863868689416,-0.028982564981101112,-0.011099085336686135,-0.046283746688244566,0.06781584644093613
387,86.9468,-0.03691505899178315,0.03245222990345732,-0.010219221125753866,0.039622684131873274,0.016207750169929362,-0.023781321532200445,-0.01589771935472291,-0.05601443923558142,0.08817804392643223
388,86.9535,-0.03665342558986129,0.032547703484150106,-0.010358022679170723,0.03847683882976911,0.01229182615623592,-0.017651977995162105,-0.01898099802195173,-0.06318350719866603,0.09839482113687652
389,86.9603,-0.03639630002253463,0.03261644880114937,-0.010455893917170563,0.03714832803102945,0.00792738472590497,-0.01113368024009154,-0.020863237289560285,-0.06771330712786693,0.09709970538855552
390,86.967,-0.0361520492800472,0.03265440220345929,-0.010510423162140046,0.03576234136825782,0.0034019890979608046,-0.005143706317975191,-0.021325212591049986,-0.0700365224828051,0.08523084755775942
391,86.9738,-0.03591344853052786,0.03266153143475076,-0.010528288976421428,0.03441434966686038,-0.0013051563651766997,-0.0001109449412561199,-0.019103287199391264,-0.07113855238801746,0.0657099869096168
392,86.9805,-0.03568642137596252,0.03263697698485868,-0.01051715455137858,0.03335495020329512,-0.006024530169761873,0.003434653909265549,-0.013144080233926105,-0.07251583518309249,0.04221552451091627
393,86.9873,-0.03546148422977829,0.032579270976766064,-0.010487025549597814,0.032803033968553136,-0.010947825151598655,0.005426817202726577,-0.0034088001417287234,-0.07514192111846786,0.017532746349148597
394,86.994,-0.03524089876980044,0.0324890816397768,-0.010449521824591386,0.033043371995032045,-0.015974364994471392,0.005768324590244952,0.010724519013246529,-0.07786238255199933,-0.007137503963940234
395,87.0008,-0.03501150932234651,0.03236285711033193,-0.01041469411850979,0.03442411255025876,-0.02115049660696797,0.004475118374932963,0.030686173047964303,-0.07737836232363655,-0.031647888520700294
396,87.0075,-0.0347713381408954,0.03220491656074073,-0.010394369962922338,0.03726877743519982,-0.025995936106858148,0.0015917937407287064,0.05590340616593217,-0.07011337549861224,-0.05611846601001346
397,87.0143,-0.03450223565643166,0.032014054165110536,-0.01039898207742725,0.04187901211281249,-0.030140062607801627,-0.002948298006876833,0.08236515402189194,-0.0541758298436155,-0.08004639173798961
398,87.021,-0.034201078432042356,0.03180281624217258,-0.010438708760321838,0.04801866680943356,-0.032916033791634804,-0.008910413304949254,0.10452157541796561,-0.030322761885229862,-0.10143616447373212
399,87.0278,-0.033849334343347554,0.03157533888564931,-0.010524054997529423,0.05543547692435648,-0.03398907106816643,-0.01619142116787577,0.11792082231048749,-0.0018594001150419274,-0.11693329919237769
400,87.0345,-0.033451681378431,0.031350297413483975,-0.01065895934442173,0.06326690066276293,-0.033187487787207814,-0.02407853312836467,0.12046215550321948,0.026259026014926783,-0.12314478855952124
401,87.0413,-0.03299506920770698,0.031133128942415794,-0.01085005965376103,0.07103079660876041,-0.030685591938609907,-0.03212744020661962,0.11238992014362173,0.04877696692603623,-0.11825524215913176
402,87.048,-0.03249625413798228,0.03093968366614465,-0.011089665408117108,0.0778692242046927,-0.027059266649834532,-0.03939666557136692,0.09576696018034805,0.06160579995452655,-0.10301481635515805
403,87.0548,-0.0319475312781733,0.030769804093239296,-0.011378367973783176,0.0835198522097524,-0.02290531361645764,-0.045515853742202864,0.07370471600400172,0.06297811934206997,-0.08050975388206737
404,87.0615,-0.03137439326006511,0.030629187728229038,-0.011698219815686335,0.08756612334505673,-0.01906972071499348,-0.049962308020004995,0.04946090425801276,0.05377460507610758,-0.05483715708340293
405,87.0683,-0.030770425318563995,0.030509789176413386,-0.012047526873687505,0.09007150650825448,-0.01604750040726599,-0.05277506198036399,0.025679679013613118,0.036866778658645544,-0.029521984578262717
406,87.075,-0.030163667512388307,0.030408083223840202,-0.012405085755028373,0.09105022667826816,-0.014312485435434025,-0.053958932449598165,0.004111868011165722,0.01594584511849041,-0.006514191885683745
407,87.0818,-0.029545672264492787,0.030311938420924084,-0.012771173876111725,0.09071308152634028,-0.01396539777519597,-0.05371404433964894,-0.014223408527278986,-0.005536112339978509,0.013858791182178018
408,87.0885,-0.02894263209122672,0.030215008559544915,-0.013125995156436882,0.08929891049351454,-0.01496888920368127,-0.052202755757491226,-0.02882295356517511,-0.0250094542036513,0.03214376015262171
409,87.0953,-0.028343153633868565,0.030105738261662737,-0.013471796842249192,0.08701828284716173,-0.017169433702849905,-0.04950362242262412,-0.03957684016283133,-0.04098851353700137,0.04880771109896169
410,87.102,-0.02776961932616924,0.02998036792817846,-0.013791095451416185,0.08418598810762387,-0.020254546441658493,-0.045809395239033344,-0.046636200608358644,-0.052920127615939325,0.06364194124510106
411,87.1088,-0.027208142231001084,0.02982974070131567,-0.014086800742608844,0.08095433400069704,-0.024047579106231485,-0.04116274922941679,-0.05028644902607642,-0.06083919310232195,0.07571865498949698
412,87.1155,-0.026676882415786963,0.029654771294884075,-0.014345035443019209,0.07763068546632185,-0.02818209445547739,-0.035922235967764074,-0.05088305236930323,-0.06501251837335774,0.0837988476145946
413,87.1223,-0.026160296148100528,0.029448313683706956,-0.0145699560116549,0.07430645208854841,-0.032540732361337484,-0.030230872454513814,-0.04881620266124865,-0.06571023865919431,0.086894553809338
414,87.129,-0.025672711953293396,0.029216107052826505,-0.014753619933698288,0.07124106874920019,-0.036774679841685906,-0.024594178901645947,-0.04449188958118358,-0.06316811628416001,0.08468239554706755
415,87.1358,-0.025197665260395942,0.028952336381211658,-0.014902452906609527,0.06847854680890827,-0.040804929456817386,-0.019180224895787638,-0.03836071074892207,-0.057705732977564025,0.07769103610269273
416,87.1425,-0.024746491282932548,0.02866710270571827,-0.015015001749424639,0.06620025243399527,-0.04433945128754153,-0.014416444601285374,-0.030988952296956328,-0.04988260182591369,0.06731505349051092
417,87.1493,-0.02430245887065271,0.028355339534875852,-0.015099093785176938,0.06439751588363608,-0.047355598960249545,-0.010316507090573454,-0.023078097353914445,-0.04057665354457909,0.05564885097626322
418,87.156,-0.02387522307940005,0.02803018774699201,-0.015157129092283643,0.06313555613190727,-0.049704636228822596,-0.007007465180060466,-0.015335061421061346,-0.030926372952436432,0.045076035160121646
419,87.1628,-0.023448579713910102,0.027686180417632513,-0.01519540282403571,0.062347786659284185,-0.051473990053407304,-0.004249514747020922,-0.00829144750020415,-0.022139473560033228,0.03763945810930771
420,87.1695,-0.023032011442060046,0.027337188331967282,-0.015215942309896655,0.0620009512064955,-0.05270275193629131,-0.0018816750622212435,-0.0022659774085846927,-0.015263165659878158,0.03443590058694798
421,87.1763,-0.022610374590359774,0.026975829601369964,-0.015220827690103283,0.06200988752890902,-0.05357922765118087,0.0004447985308597595,0.002533992492392555,-0.011023790127019657,0.03533888888158982
422,87.183,-0.022193975663629344,0.02661456433633492,-0.015209650472693338,0.06228829955462947,-0.054261149971071614,0.0028916842780744374,0.005940671881183015,-0.00973344108441765,0.039142575826946704
423,87.1898,-0.021768848945249407,0.026243212676928453,-0.01518056100336341,0.06274897055714662,-0.054959926324973735,0.00566404199543569,0.007875613122218147,-0.01122401707204605,0.044005015719183624
424,87.1965,-0.021346635603154845,0.025872113081691298,-0.015132486576625517,0.06328486290400982,-0.05581607225336304,0.00868653315021504,0.008436569400396639,-0.01483645707285727,0.0479974688812093
425,87.2033,-0.020914448188081178,0.025488668411064848,-0.015062355783381035,0.06382908270592283,-0.05696177204856119,0.011940170745226084,0.00788548223002859,-0.01952497399682879,0.04958450190667528
426,87.21,-0.020485205274020223,0.025102225344597655,-0.014971626287437513,0.06430313044669553,-0.058394367195462316,0.015143260879725702,0.006544194396593475,-0.02408220504584754,0.04791528740023011
427,87.2168,-0.02004666774800537,0.024699306111407447,-0.014858358465090721,0.06467849485155149,-0.06011128962496819,0.01817080451632773,0.004713604703574719,-0.027411137242074533,0.042885751768462106
428,87.2235,-0.019612512983981867,0.024290378595433853,-0.014728038967227637,0.06491994217048587,-0.06195662559112035,0.020730538129398044,0.0026358802426229037,-0.028759579267717734,0.03503072184808424
429,87.2303,-0.019170708828699944,0.023862653329034214,-0.014580224932765212,0.06502245644187565,-0.06384492334998056,0.022744177888972927,0.0004386922455477451,-0.027873592486403125,0.025361663738268137
430,87.237,-0.018735220385366326,0.02342906986444482,-0.014423375004604206,0.06497409380706123,-0.06558297652754626,0.024076696188973856,-0.0019108165089098074,-0.02503151211607051,0.015199247145365892
431,87.2438,-0.01829413223308285,0.022977894879120248,-0.014257257165465576,0.06475771568811038,-0.06711554856794914,0.024781491792988032,-0.004578721021322534,-0.02093285721204325,0.005938738273722408
432,87.2505,-0.017861615375994334,0.022524101411167993,-0.014090705353734103,0.06435179389037272,-0.06834518813402907,0.024935466932755862,-0.007777250272816754,-0.01649649806106447,-0.0012518443508393517
433,87.2573,-0.017426225305975637,0.022056048398130513,-0.013921927535641308,0.06370410905633389,-0.06931746275938101,0.024705067800430892,-0.011647888732168007,-0.012663625437131537,-0.005658206551745234
434,87.264,-0.01700246620705134,0.021589101029221548,-0.013757806770485517,0.06279114435399814,-0.07006981154190534,0.024286205380438807,-0.01614210854690716,-0.010237337289878235,-0.007091668095222364
435,87.2708,-0.016579692829293384,0.021110362118042833,-0.013594129424063578,0.06155396675131298,-0.07073575056951492,0.023854190626025392,-0.020962893211667267,-0.009735275160369225,-0.005865168649517107
436,87.2775,-0.016172404828538628,0.02063412081481422,-0.013435250748129785,0.06002454093650626,-0.07142583248360669,0.02357227980190687,-0.025591742606339576,-0.011270328304742687,-0.0027159966629375014
437,87.2843,-0.015770430638326782,0.02014550576364664,-0.013275114703053113,0.05820316206700638,-0.07228447668336284,0.023526556985360825,-0.02903442101733356,-0.01448183086205182,0.0013446938001426111
438,87.291,-0.01538693601719178,0.01965754181485102,-0.01311676715930589,0.05627284424203416,-0.07337640355424326,0.023741366521308004,-0.029723082932694097,-0.018755647753585406,0.00519395594635782
439,87.2978,-0.015010715004114585,0.019153744825754566,-0.012953880430684312,0.054380394898343905,-0.0747991814741619,0.02416649483799105,-0.02703460171438999,-0.02391581437607331,0.007556345145342916
440,87.3045,-0.0146517899039053,0.018646628635309238,-0.012790371093716163,0.05276142605950356,-0.0765787858227419,0.024642262465866302,-0.02224566017424478,-0.030254078368121953,0.006925683623426451
441,87.3113,-0.014297359723270675,0.01811826060229597,-0.012621769371911121,0.051482744715410936,-0.07882357682825625,0.024946479241511013,-0.016104107408225026,-0.03707091525160042,0.0021982804467163106
442,87.318,-0.01395498631090755,0.017581476412637312,-0.012455062397444287,0.05071827390052254,-0.08141050963713382,0.024816796718774865,-0.007165841376572589,-0.04167348257224864,-0.0061457243563887405
443,87.3248,-0.013610259259270984,0.017018561531416794,-0.012288787130077854,0.05067203540437441,-0.0841526907218818,0.02408769368312913,0.005779072429926205,-0.04056906187009239,-0.015721281125363036
444,87.3315,-0.013267776223757915,0.016446790213770456,-0.012131680061843808,0.051561706539684116,-0.0865253145454464,0.022809938625476235,0.02130188520865674,-0.03165192261298701,-0.02317267554632067
445,87.3383,-0.012910657207183086,0.01585307265787244,-0.01198208186080582,0.05347329833529097,-0.08809749601283588,0.021189532268060522,0.03602991322006004,-0.015500398917626595,-0.02542599016749422
446,87.345,-0.012543296995208272,0.015261640550771897,-0.011845184299142015,0.05618646643339123,-0.0884494016292477,0.01967541151220987,0.04655699717305562,0.004788641828271419,-0.020662770523504233
447,87.3518,-0.01215021419567966,0.014663536367796895,-0.01171473807655245,0.059426121663287576,-0.08746359336344231,0.018691124543553473,0.05060561936767485,0.02477737792260085,-0.008857623010674201
448,87.3585,-0.011741268964551053,0.014084676758924379,-0.01158957865732644,0.06264708165851592,-0.0853303197325925,0.01866989612087597,0.04743811581092541,0.040157956647334424,0.008211444897833372
449,87.3653,-0.0113056039925411,0.013514426588200887,-0.011458582541034682,0.06548967481503006,-0.08239031871553401,0.019858373376708916,0.037815952677259006,0.04801753462522028,0.027432952941244988
450,87.372,-0.010860070709773292,0.012972932941209823,-0.011317534540384,0.06750533496650371,-0.07924957590878375,0.022245507414570414,0.023539311093270864,0.04758444629535945,0.04522971216205767
451,87.3788,-0.010397597010462025,0.012443982955386507,-0.011154497115118888,0.06851634130154881,-0.07632394933340543,0.025706676486944652,0.0067824404146446275,0.04015993170561361,0.05857647074849047
452,87.3855,-0.009938943925198824,0.011940144500668236,-0.010968581210572977,0.0683950274338364,-0.0740755893885781,0.029790608452174357,-0.010475148407644474,0.02827854854370835,0.06573551843499084
453,87.3923,-0.009478072178921574,0.011441298909398023,-0.01075102047647084,0.06715548617686866,-0.07264370216121298,0.03419784275421829,-0.02670074325067016,0.014666116776807119,0.06644472486437257
454,87.399,-0.009035556685143905,0.010956369606296692,-0.010507798917298614,0.06493869107029454,-0.0721113136900374,0.038405607745007314,-0.04077692573516362,0.0015394102578397688,0.061636653688214305
455,87.4058,-0.008604487428475152,0.010465093223523333,-0.010233651253803171,0.061846384420545616,-0.07238174006686764,0.04222605798896587,-0.05196646327216576,-0.009649944401096674,0.05294496556593158
456,87.4125,-0.008202431973496483,0.00997707381558238,-0.009940265469049716,0.05817016930451905,-0.0732956951394946,0.04535178820616023,-0.059934914525135774,-0.018170199046420598,0.042200042788410795
457,87.4193,-0.007820995866404445,0.009473904647764127,-0.009623575234641215,0.054016921016460946,-0.07469523657148297,0.04779239838440336,-0.06462786829391845,-0.023804362392704066,0.03099789157361477
458,87.426,-0.00747346331368327,0.00896789948210793,-0.009297709903656887,0.049724139497399525,-0.07635108153495626,0.049480834745318794,-0.06604135301241551,-0.026598382545588845,0.020396912360958003
459,87.4328,-0.007150098536972357,0.008442673801507811,-0.008957698165159773,0.04538314777053905,-0.07812705981805708,0.05052261775385636,-0.06415216593710649,-0.026666142430147845,0.01084788246877535
460,87.4395,-0.006859588565666269,0.007913633365187519,-0.008617740197216119,0.0413362466492529,-0.0797954584866243,0.05095737267716014,-0.05903263065086654,-0.024118728377316136,0.0023857486943641647
461,87.4463,-0.006590970949483493,0.0073661223845098754,-0.008271536191289881,0.03766893458099428,-0.0812371828891919,0.050867334948228704,-0.05095612152718739,-0.01912097009163849,-0.0050861290464559025
462,87.453,-0.006348645571950605,0.006818406137346075,-0.007932562384744919,0.03466699901081281,-0.0822602043236568,0.050318875960575486,-0.040420665673557614,-0.012019075966461427,-0.01160857309869858
463,87.4598,-0.006120683184668514,0.00625728430201073,-0.00759365003078465,0.03238076195452422,-0.0827756295985434,0.049361228145409844,-0.02814736353258864,-0.003439380191791547,-0.017112868179169915
464,87.4665,-0.00590848811751001,0.005702940111683724,-0.007267175052151615,0.030961049137613286,-0.082700248111133,0.04809398935706074,-0.015067686532417732,0.0057339391431597865,-0.02146098072217468
465,87.4733,-0.005699917143307233,0.005142870912428791,-0.006945351320775504,0.030383355039689003,-0.08202598696388674,0.04656004928299486,-0.002258314579205623,0.014488267434142176,-0.024544418197293465
466,87.48,-0.005495586461446999,0.004597294194332396,-0.006639002580625661,0.030610878351341516,-0.08083273485570791,0.04488733583623503,0.009183962630613846,0.021833479457749445,-0.026371791394492746
467,87.4868,-0.005284317826900679,0.004053161613497651,-0.006339825664687867,0.03152695533876748,-0.0792062595074909,0.04310587473372567,0.01829070079334076,0.02694720532419773,-0.027057172400176827
468,87.4935,-0.005068391057862341,0.0035286721253140517,-0.006056933431267804,0.032928796613022934,-0.07735776681608732,0.041339568078295696,0.024380352203106397,0.02931959966078216,-0.02670794800681117
469,87.5003,-0.004838625220053672,0.0030092343927339386,-0.0057817229743060555,0.03464939097777831,-0.07541803688398266,0.03960468396929677,0.027223117493950646,0.028856108002928767,-0.025324094745671114
470,87.507,-0.004600492272963679,0.0025099596081414634,-0.005521670583809402,0.03643507084003202,-0.07361921224789365,0.03802289528332842,0.02713170957249084,0.025898836645475716,-0.022824429689694697
471,87.5138,-0.00434683629041903,0.0020146865121980417,-0.005267876756882746,0.03816962990841225,-0.0720493453825596,0.036622347930411886,0.024890584674439727,0.021184066142711407,-0.019180300981265688
472,87.5205,-0.004085991769762282,0.0015360205333772728,-0.005026217218253314,0.03969440610858485,-0.0708360214297159,0.03551482777991957,0.021522520175710477,0.015748653448634943,-0.014531825993588094
473,87.5273,-0.0038115966497582698,0.0010573388452932014,-0.004787408842402035,0.041010040951438266,-0.06995271035975073,0.0347229298234146,0.017935543930660578,0.010743305938029414,-0.00921850298501209
474,87.534,-0.0035332477577083893,0.0005906258335730667,-0.004556190659553656,0.04207918055587402,-0.06936460657144035,0.03429742326555841,0.014608306474666098,0.00715815578892596,-0.003733614500772578
475,87.5408,-0.003244144944891945,0.00012039135652713753,-0.004323235534870217,0.04295105850780646,-0.068939651383278,0.03421878987664622,0.011540754799560677,0.005586952892201689,0.001375269160914327
476,87.5475,-0.0029541712595388247,-0.0003402130344897714,-0.004093198862698245,0.04360825055289059,-0.06855419668157267,0.034448873458321545,0.008463704406794679,0.006146014531612691,0.005628311692056896
477,87.5543,-0.0026560982760005466,-0.0008047168161034311,-0.0038573195165516163,0.04406027401721229,-0.06806456261659542,0.034927404820115235,0.005093226628952369,0.008538920600261063,0.00872363501498872
478,87.561,-0.002360192391788825,-0.0012584670816394425,-0.003621179453107303,0.04426984067273181,-0.06738327784172837,0.03556216635719431,0.0012858335600781576,0.012198904193350735,0.010598055454665833
479,87.5678,-0.002059343177477448,-0.001713424659089211,-0.003376862190193374,0.04421522236004745,-0.06642777434941222,0.03629585214691978,-0.0029239270591886316,0.01645822529700376,0.011406394398709318
480,87.5745,-0.0017642329327262573,-0.0021544016074744095,-0.0031311672700735874,0.0438773880135075,-0.06520713561641613,0.03704591505307082,-0.0073595105667172344,0.020697151008245974,0.011424987874607858
481,87.5813,-0.001468034113797382,-0.002592693713648413,-0.0028767213143549874,0.04323991167147684,-0.06370230737596894,0.03779113074653545,-0.011759458885008749,0.024435135889736764,0.01092526285455853
482,87.588,-0.0011813607326837763,-0.0030137960642828785,-0.002621208965198915,0.04233423194458813,-0.06199988684336747,0.03848121228518432,-0.01580878891423074,0.02738533630135339,0.01008032918238254
483,87.5948,-0.0008974486387964221,-0.0034289459608419157,-0.0023573809915470186,0.04116932508094985,-0.06010302390906467,0.039115250553465215,-0.019128693893387748,0.02950471922517236,0.008935526753302182
484,87.6015,-0.000626065029881963,-0.003824975253450478,-0.0020935076222508356,0.03984070743088894,-0.058114675377160856,0.03965291938575221,-0.02131348397576895,0.03101919823854939,0.007430730724201189
485,87.6083,-0.00036006603416474653,-0.004212965888138308,-0.001822408399830773,0.03839429130948767,-0.05600021717811054,0.040082146031932435,-0.02206692689793336,0.03239689903310477,0.005442486044981854
486,87.615,-0.00010755763263941594,-0.004580828369052018,-0.0015529502703467309,0.036981350936935435,-0.05380947861710789,0.04035311650067696,-0.020941974769638366,0.03428762720725305,0.0028056626182188685
487,87.6218,0.00013960387476228862,-0.004938623053453173,-0.00127830744188663,0.035713210063583405,-0.05142425208913967,0.040424185987607476,-0.01709166666851953,0.037249259916124315,-0.0006741712043632308
488,87.6285,0.0003758472379840732,-0.005274525555989795,-0.0010081230785811406,0.034807196868195195,-0.04884515165299709,0.04022786276018841,-0.010486731675003491,0.04125672604296233,-0.005301768436923402
489,87.6353,0.0006110897453832117,-0.005596787578963272,-0.0007365093305256948,0.034381775896273975,-0.045937796280401136,0.03965853372672664,-0.0022723466311435694,0.045939668378369894,-0.011773350561316459
490,87.642,0.000842029391933399,-0.0058938392875192884,-0.00047442976826765957,0.03455543202920607,-0.04273435552743046,0.038574171424983546,0.007558316011264115,0.05157079350583418,-0.02123386794108105
491,87.6488,0.001080180634772477,-0.006171882776796485,-0.0002184688554122349,0.03548905115877491,-0.03904314131882337,0.03670845000310066,0.020442465258380362,0.05913482337922623,-0.03472220214111499
492,87.6555,0.0013242530291906818,-0.006419319751834548,1.787576758437921e-05,0.03736838001073784,-0.0348186422745265,0.033842183727134455,0.03676297055837033,0.06945592787967897,-0.052524908077111084
493,87.6623,0.001588834013082754,-0.00663882252234628,0.0002336652695193121,0.04044955642812567,-0.029740996111292495,0.02962531684197872,0.05564660437858196,0.08283107554432508,-0.07394590165124393
494,87.669,0.0018744055505672383,-0.006818044072230341,0.0004133087479315328,0.04479567864193272,-0.02375797400339231,0.023999602087082066,0.0766462698006973,0.09928786911345741,-0.09729686089089087
495,87.6758,0.0021990561997508647,-0.006954858591259353,0.0005518725969768307,0.050689806412098,-0.01648159041691493,0.016754471161544778,0.10012836692290354,0.11894290485652056,-0.11999659410675428
496,87.6825,0.002563614070216075,-0.0070365463661965786,0.0006356257484534082,0.05813343850273972,-0.007902820012074133,0.00824646957769756,0.12645050848783282,0.1421887748216676,-0.13898093291052682
497,87.6893,0.002990825571375203,-0.007054955512262861,0.0006587856672574695,0.0675170030146812,0.002488365286695474,-0.0014347287529720004,0.1549781052872661,0.16946005227291525,-0.15137421117303143
498,87.696,0.003480437342419963,-0.006997565772787481,0.0006154388851156751,0.07863576446147458,0.014642900228356204,-0.011504609199812006,0.1834690981616149,0.20051536089805053,-0.15514579940606638
499,87.7028,0.0040595195545045926,-0.006848796145158628,0.0005026461424829217,0.09168253321051627,0.029112872603669883,-0.021669726868652886,0.2078250671435258,0.23346303417411574,-0.1497228857041673
500,87.7095,0.004721103135672005,-0.0065989503739287,0.000325956346114047,0.10580510295858772,0.04546795462904146,-0.03107349592795327,0.22205592811021113,0.26437404958207106,-0.13652116721689417
501,87.7163,0.0054905317337029585,-0.006227118433675841,8.57165061147897e-05,0.12049742587410024,0.06389438073947265,-0.039585280542433536,0.2185911272797555,0.2882649343017829,-0.11876132609968525
502,87.723,0.006342663399848442,-0.005734188790723058,-0.00020358038761646437,0.13387023566205317,0.08324879626146713,-0.04677200116845247,0.18846770716369607,0.30086973138490497,-0.09999734675105541
503,87.7298,0.00728813823949597,-0.005099986555089384,-0.0005422822879898241,0.14421059952846332,0.1032812730425994,-0.05284620482373612,0.12165690115018969,0.2999373674336069,-0.08217806349082782
504,87.7365,0.008268819989547455,-0.004343556122398114,-0.0009125241869007948,0.1485302213820231,0.12251885611866174,-0.05767376500028158,0.009829320879738226,0.2856410015557506,-0.0647694404238944
505,87.7433,0.00926314381993694,-0.003448526191407803,-0.0013171568559756778,0.14391796402671944,0.14072524123149313,-0.06133584355118329,-0.1481585445159435,0.26039858901126767,-0.04506234991593156
506,87.75,0.010173401039948694,-0.002451909059180321,-0.0017351654508391463,0.12780060911131902,0.15677241017991564,-0.06344284148278023,-0.34244229481436966,0.22806583932050906,-0.01907317102621621
507,87.7568,0.010940901820236418,-0.00133815653807949,-0.002166840150620217,0.09793491450277181,0.17080186073217235,-0.0635203055116829,-0.5532792641324072,0.19270057795336615,0.016749896726373146
508,87.7635,0.011453079616532112,-0.0001552080133075276,-0.0025836105094156282,0.05495397991396613,0.18231710188658515,-0.06088875681539761,-0.7550298656939033,0.15781518627093535,0.06335257703019473
509,87.7703,0.011636823180308484,0.0011167407558497545,-0.0029771130328321072,-0.0009117552739565937,0.1917854772766296,-0.05484727948335279,-0.920475896687009,0.12615704595764377,0.1178413166701982
510,87.777,0.011416511091437449,0.002426507557755781,-0.003312471788987846,-0.06485304737416243,0.19918968747172722,-0.04525981190649401,-1.0258516326677867,0.09922185494513566,0.17399438868891648
511,87.7838,0.010739465471533413,0.003800924972073406,-0.003575113473063253,-0.13427801730354294,0.20505072850414227,-0.0319877422333502,-1.0563179974060808,0.07656045581027476,0.22405692382522105
512,87.7905,0.009612443453931101,0.00518930780951235,-0.0037360719559852004,-0.20214646556306787,0.20939190953764025,-0.016059566101594987,-1.0095493769205592,0.055582012348932605,0.2607854476592826
513,87.7973,0.008021869436194637,0.006623127393533211,-0.0037840891833661786,-0.2656694220056154,0.21231973282065675,0.0019368521660392997,-0.8956091107452258,0.032228248545792815,0.278956890076156
514,87.804,0.006062604283733776,0.008049477440117886,-0.003710023563698397,-0.319185847386119,0.2134564004885168,0.020172288033314736,-0.7333928779462192,0.0023711081612391473,0.276116829463956
515,87.8108,0.003747160171288839,0.009497086502495564,-0.0035129045674079456,-0.3618271268625559,0.2123109707991383,0.03780388734624379,-0.5454895933554339,-0.03672443831082157,0.25268398465747316
516,87.8175,0.0012239946651713,0.010906100009611617,-0.0032085250617901358,-0.3913566063074158,0.20829007610148723,0.05305566656958751,-0.35336679323395137,-0.08566874120782954,0.2115693452176018
517,87.8243,-0.0014970065335898897,0.01229653524483004,-0.002805911485575569,-0.4089378639166561,0.20066146366873583,0.06536009114060767,-0.17392418996276043,-0.1431259582099195,0.15746069085405318
518,87.831,-0.00425799302495637,0.013602500192623244,-0.0023401030588232306,-0.4152372081319011,0.18917881925406976,0.07368720042706246,-0.01782337503441042,-0.20639758440140238,0.09601060307506012
519,87.8378,-0.007071103201174721,0.014834678332707343,-0.0018243913000246612,-0.41214813781487175,0.17322651606487005,0.07799272863137685,0.11046970107277777,-0.2720383625506675,0.0331193062006512
520,87.8445,-0.009797057447551352,0.015928319274500606,-0.0013010215090490922,-0.4015695476712917,0.1532334665602262,0.07823705971965488,0.21153507146050785,-0.3365358680992054,-0.025682041363283323
521,87.8513,-0.012470941022291298,0.016887149604392318,-0.0007805153314087542,-0.3848667978406466,0.12877545399622725,0.07485299252754021,0.2894080109991177,-0.3970003656870771,-0.0758117286839767
522,87.858,-0.014979190639800497,0.017656549190556294,-0.000299906137037344,-0.3638644312655428,0.10089606426135901,0.06861243862790646,0.3498891145981808,-0.45162846179161853,-0.11414630085066153
523,87.8648,-0.017368565482283858,0.018234784081067455,0.00013792524201220965,-0.3388928753473793,0.06917302118314167,0.06016149638669914,0.39904913343247883,-0.49979804855730103,-0.13931142909937416
524,87.8715,-0.019546559140756835,0.01858360339445365,0.0005089848094839354,-0.3112544853913042,0.03495214699191911,0.05060255360494272,0.442243831905937,-0.5418610629380247,-0.1516560017511503
525,87.8783,-0.021558121451421976,0.018694232055526956,0.000818551624372896,-0.28038148833387927,-0.0024143054997625216,0.04044650959771467,0.4836883928788758,-0.5788206260986354,-0.15294054924562236
526,87.885,-0.023325517614077675,0.01854699869991487,0.001056658796775876,-0.24719945574171998,-0.04153594990676908,0.03063025828367369,0.5263491179790382,-0.6120144509200746,-0.14585917062242704
527,87.8918,-0.024881975297929026,0.01812230127455422,0.0012332718709609778,-0.21058221597937601,-0.08337505755227624,0.02131476353548642,0.5718624426142322,-0.6428095609229466,-0.13352791839638445
528,87.8985,-0.0261616581948451,0.017418953160867254,0.0013482883567525784,-0.17141267862271975,-0.12657960324995868,0.013018515805315323,0.6204304617874562,-0.6723061322801928,-0.11900397167355772
529,87.9053,-0.02718087506270412,0.016402521622796738,0.001411434523104126,-0.12835698839471135,-0.1723708491237943,0.005553886062791387,0.670880873108605,-0.7010490391909867,-0.10487261574793486
530,87.912,-0.02788768470137093,0.015090283703443237,0.001426871453852085,-0.08263096344583606,-0.21934196262297825,-0.0009458470335562815,0.7209868580954837,-0.7287183033964207,-0.09297464450179035
531,87.9188,-0.02828077907437664,0.013430682376909404,0.0014003448518271533,-0.032985028614694524,-0.26877607459297254,-0.006856094738484353,0.7679768082507771,-0.7538924451324494,-0.08428345571680364
532,87.9255,-0.028328205697553527,0.011461722033204294,0.0013364509526930068,0.018827827666359112,-0.31897328173734585,-0.012216710973215233,0.8091697466902606,-0.7740748972964111,-0.07888989610742969
533,87.9323,-0.028012924030774038,0.009115845700076345,0.0012358035745320592,0.07390207432763132,-0.37099034565339356,-0.017385459074129438,0.8425979661938082,-0.7860028505481704,-0.0761294050485221
534,87.939,-0.027329586203388066,0.006457188872299957,0.001102711224071036,0.13007936668325704,-0.4226385581610406,-0.02234360076501136,0.8673989238442508,-0.786132064837385,-0.07479290744215966
535,87.9458,-0.02624650897092755,0.003406692768421631,0.0009339953959368205,0.1884727605104234,-0.4745661782721021,-0.0272787016273132,0.883915500163299,-0.7712631154129161,-0.07321892673317078
536,87.9525,-0.024788127184488112,6.086374183158355e-05,0.000735537200791236,0.2468650861882376,-0.5241887550390987,-0.031962550654994634,0.8935054313948687,-0.7392128863508342,-0.06935411185402908
537,87.9593,-0.02290635337216962,-0.0036655633746360498,0.0005033953254602629,0.3065977997879237,-0.571819220392822,-0.03631447150119036,0.8979774069222419,-0.6893035181458369,-0.06116718945372023
538,87.966,-0.020654413635368764,-0.00764112663055413,0.00024813606943797976,0.365623017168053,-0.61491607988211,-0.039882321341338595,0.8987082986631012,-0.6225342833374802,-0.04743562629172921
539,87.9728,-0.017964742851008603,-0.011954499000388391,-3.165729298054991e-05,0.4254566252893555,-0.6537228524197388,-0.042409844075723846,0.8958005331647574,-0.5413449851888013,-0.028368959323511404
540,87.9795,-0.0149178819281762,-0.01644342135041231,-0.0003195384325349468,0.4840540979448705,-0.6862539684839153,-0.04352482444804029,0.8878649267278881,-0.4488790887494662,-0.005570251506461289
541,87.9863,-0.011426731880161634,-0.021200292744984535,-0.0006140329445290174,0.54275473970672,-0.7128258534494292,-0.04309120849141309,0.8726643708245111,-0.3480556732718701,0.018575110952896372
542,87.993,-0.007600902716789675,-0.026041075945052637,-0.0008960972913559879,0.5992838165245603,-0.7321840570197303,-0.04110710399431202,0.848040588455167,-0.24119429791553126,0.041819621104950716
543,87.9998,-0.0033380027909362155,-0.03106212983959829,-0.0011637522654714563,0.6545102793149942,-0.7445965001999355,-0.037614947216138825,0.8082923378048693,-0.13107539483522246,0.0629159343351914
544,88.0065,0.0012162216860222936,-0.036067704608383745,-0.0013999599607658832,0.7049597138050712,-0.7496049233160461,-0.03289481257314496,0.7273526259273191,-0.021377448536252355,0.08076161261683801
545,88.0133,0.006152680353229008,-0.04115743300567962,-0.0016044214341756275,0.7469398941972533,-0.7473740170654538,-0.027240914900323713,0.5317023908272842,0.08828601539987835,0.08880812630949694
546,88.02,0.011225871791145271,-0.04613154417755476,-0.0017696709774134714,0.7674456096594678,-0.7374352879730005,-0.02208730696175572,0.09247702754727877,0.21424184107706434,0.06806403996791882
547,88.0268,0.016374982118395227,-0.051076866226373294,-0.001912718536179689,0.7469986042379425,-0.7170711969739779,-0.01998550444008309,-0.7057165256408658,0.39651091640135494,-0.0050275073847426315
548,88.0335,0.021102216895324176,-0.05576372431861048,-0.00206189544057147,0.6641162545448688,-0.681990920109816,-0.024544914781282585,-1.817163347541724,0.6713078022282282,-0.13375770594462844
549,88.0403,0.025075432295955373,-0.06021024286210327,-0.0022769490207082037,0.5044765103469416,-0.6258086515060244,-0.03870613820012492,-2.970696516996944,1.0136913206300355,-0.2909607974612461
550,88.047,0.027708017300935774,-0.0641453594997036,-0.0026164967116585644,0.281369759797043,-0.5488530313606164,-0.06265138148662484,-3.820514550487304,1.3287831134625472,-0.4379154056122742
551,88.0538,0.02871734530504102,-0.06755490650550748,-0.0031538010400516724,0.015491417881041303,-0.45395491152312045,-0.09537930333491554,-4.1536165063215575,1.5173683976974595,-0.5436490804402145
552,88.0605,0.027930131584054732,-0.07026037813590186,-0.003917402502196179,-0.2504805883243848,-0.35364856023528113,-0.1325614316332791,-3.9423825063818616,1.5358857119362117,-0.5881485034049909
553,88.0673,0.025408217966187852,-0.07233226863535244,-0.004949254236688647,-0.4912587110484059,-0.255730998426802,-0.17092437262928456,-3.278951478092631,1.4008238560461,-0.5624195233935921
554,88.074,0.021500999637731853,-0.07376347069532097,-0.006208100327331631,-0.6750751183423073,-0.17149349708650652,-0.20485057980173474,-2.3162894391934654,1.1633058710438353,-0.4702701332816654
555,88.0808,0.016508019407806804,-0.07469762898834299,-0.007691368836361743,-0.793448478694825,-0.10325894203768349,-0.2314048640307563,-1.233923347164481,0.8831612486219453,-0.3261367535525673
556,88.0875,0.011033759764910764,-0.07522504796376223,-0.009294205915575324,-0.8406588773912885,-0.05417955808724405,-0.24705396558457682,-0.20312766692117085,0.6107803495023141,-0.15021078593838308
557,88.0943,0.005367158350453474,-0.07548138160142216,-0.01098722985057295,-0.8259885974494922,-0.021212688283342634,-0.25089425059131526,0.6431136170852381,0.3779505807970643,0.03503428935520036
558,88.101,3.855329162558412e-05,-0.07556025642018094,-0.012641546444867568,-0.7646397783212039,-0.0023320337342213372,-0.24293159845221945,1.2243008758166207,0.19676313727424033,0.20734318779540778
559,88.1078,-0.004850543331294847,-0.07554655736946277,-0.014230545308595374,-0.6733298166557397,0.006361166298389372,-0.2244210085266593,1.5142358393801272,0.06396030437033405,0.3478200080541258
560,88.1145,-0.009026252072352772,-0.07550046177762304,-0.01564706136840412,-0.5731504045538597,0.007398711862704945,-0.19841960634103883,1.5351543315674303,-0.032378154112588896,0.4436442119100624
561,88.1213,-0.012597175421984345,-0.0754658461752355,-0.016890590272546482,-0.4771211688674445,0.0027823476630467574,-0.16732418899503798,1.3449212140013875,-0.10607424057574831,0.4889587650616968
562,88.128,-0.015533567678120684,-0.07547731046262124,-0.01790452651148742,-0.3994138329649469,-0.0062045230020781605,-0.13534334501740608,1.0204349139734565,-0.16747972125023367,0.48451541728853953
563,88.1348,-0.01806113940351689,-0.07556354562339876,-0.018720372904647797,-0.3439896156811752,-0.01915875957955014,-0.10461147650040939,0.6418289964938128,-0.22103925124397417,0.43718412923778527
564,88.1415,-0.020264438655455276,-0.07574551331890013,-0.019333613338910347,-0.3137116535546502,-0.035159955495525266,-0.07844536954824848,0.2798106714575918,-0.2660257906237308,0.359293586871251
565,88.1483,-0.022367380575461136,-0.07604858437593578,-0.019796053211789167,-0.30480067585769427,-0.05397859069126645,-0.05756635776879952,-0.01255571760306611,-0.2983761921756477,0.2669024961411569
566,88.155,-0.024433314299859885,-0.07647742904208987,-0.020132931243281218,-0.3118959582916423,-0.074034742489151,-0.04299424864681259,-0.2034196416076704,-0.31211882747403685,0.1766621584553993
567,88.1618,-0.026609309716212233,-0.07705032777104763,-0.02039366504389913,-0.32810269357684985,-0.09446488367493411,-0.03369216329965079,-0.2826471445620823,-0.3006148843076153,0.10232276045658874
568,88.1685,-0.028867234299142727,-0.07774465091555426,-0.02060232779354947,-0.34590464461185616,-0.11279575647644977,-0.028595224655720793,-0.2592316044841438,-0.25736386774478726,0.05282443273066487
569,88.1753,-0.03126615047857747,-0.07856065720577612,-0.020787042500178213,-0.3596589375750028,-0.12720609358886506,-0.025732630235099734,-0.15328238176797945,-0.17482596719671162,0.03302950673663385
570,88.182,-0.03369114986363778,-0.07943667276583072,-0.02095082294657549,-0.3642214758748382,-0.1342910885166227,-0.023157055256556286,0.014401955598769474,-0.040836247629881486,0.04536916679642311
571,88.1888,-0.03614069534820992,-0.08033615168375575,-0.0210930675531181,-0.35623307841125673,-0.1302615344025696,-0.01867959372657438,0.22518329173439938,0.161689237664377,0.08891730717735954
572,88.1955,-0.03845247487616116,-0.08114247093160999,-0.021191275348143468,-0.33385036276872887,-0.11043077838991597,-0.010636165982512116,0.4561306793455186,0.441944894327486,0.15591892203287447
573,88.2023,-0.04059440117786471,-0.08175492680230266,-0.021219777357847563,-0.29612796126187885,-0.06970330122561674,0.002253221951894438,0.6752265091546953,0.7795394814999921,0.2306551324400555
574,88.209,-0.04241105778687489,-0.08201313982773482,-0.02114701703271857,-0.24615759366578227,-0.00737521382865404,0.019466278086580156,0.8458359984911618,1.1176832421567353,0.2932980739902124
575,88.2158,-0.04388269168266693,-0.08177974642735172,-0.020944396316578066,-0.18667590509668805,0.07602033158840658,0.040128050190053034,0.9381181841330699,1.3834870446648633,0.32638263197365347
576,88.2225,-0.04492674621667271,-0.0809511224390252,-0.020604370486408494,-0.1249821647560144,0.17133011268835005,0.06137219762183453,0.9397954655589276,1.5176750163220494,0.3202741312232731
577,88.2293,-0.045572696503386606,-0.07944488341351606,-0.020119557875025833,-0.06500321368929496,0.2716813654026804,0.08121974690251187,0.8590724415045529,1.4920249656036153,0.274986686111726
578,88.236,-0.04583455729655738,-0.07731614026079238,-0.019523258374254993,-0.01316418725709776,0.36376435182739114,0.09678010407361222,0.7188707142515618,1.3109157566821854,0.19865953738309466
579,88.2428,-0.04578051009332382,-0.07458005033953163,-0.018830741422843994,0.029060423502266536,0.44096797795537346,0.10690135222378985,0.5475151733371563,1.0045486334180773,0.10489342833194899
580,88.2495,-0.04548465232170009,-0.07144672848296471,-0.018101885870459824,0.059255329221299086,0.4943519792294737,0.11066746938358632,0.3715963165452388,0.6204224595035558,0.009744503841832812
581,88.2563,-0.045015480729017385,-0.06799047993499083,-0.017356358498597443,0.07873631568541185,0.5221917113513251,0.1086052870465785,0.21267067587429447,0.21453713489706472,-0.07159276158195335
582,88.263,-0.04445509267441552,-0.06448559674705559,-0.01665065559122738,0.08854370061342218,0.5240420760905836,0.10205229724270126,0.08585915749865158,-0.15821334610476867,-0.12787559502949272
583,88.2698,-0.04384335093845589,-0.060991404535984374,-0.01598863866568457,0.09138033937474717,0.5036615154011971,0.09265856321111289,-0.0007836711667277014,-0.45303336461738086,-0.15385801945331556
584,88.2765,-0.04323625085459256,-0.05773730961762396,-0.015401333505230272,0.08984356625623179,0.46771010202054036,0.08265641005895645,-0.04599461135924075,-0.6413021310170786,-0.15060042036608018
585,88.2833,-0.042636698225021814,-0.05471039744709984,-0.014870408771098602,0.08649544244108867,0.42255818342794477,0.07349792350921938,-0.05442115738663503,-0.7128785582752853,-0.12407773319596165
586,88.29,-0.04206703004740625,-0.05203200189975418,-0.014400751651838432,0.08355475983197838,0.37696287548010277,0.06669823149362279,-0.03509113317240529,-0.6750102402343164,-0.08290006356674996
587,88.2968,-0.04150272163829758,-0.049607391502560605,-0.01396070434178888,0.08241830167061061,0.3361578295770034,0.06272744793274743,0.0010068739806968138,-0.5488005503159489,-0.03619030041124446
588,88.3035,-0.04094564078142165,-0.04745567586359864,-0.013543552901770292,0.08387449142680596,0.3061453462330133,0.06179536998334058,0.043318508215299575,-0.3647581320010477,0.00781850946288362
589,88.3103,-0.040360972317097295,-0.045433221906266516,-0.013117623431284066,0.08808682160981039,0.2886940529824602,0.06347800368910911,0.08301623831490457,-0.15863500520558804,0.04264645730993169
590,88.317,-0.03974917489145653,-0.04351278094135549,-0.012680557700953858,0.09453927559652274,0.2845719066928974,0.06698937849910915,0.11339187940896174,0.03315979912388349,0.06423729861848575
591,88.3238,-0.0390787120257152,-0.04155353589416923,-0.012209653827930331,0.10265568491526839,0.29167663659611404,0.07151176062520122,0.13003265510500195,0.17992279708569678,0.0713964183006068
592,88.3305,-0.03836219328488659,-0.03955051911353235,-0.011715427077731625,0.11123050637701393,0.30623882031085936,0.07601861256855139,0.13097882154990856,0.26333973516206266,0.06578895471815892
593,88.3373,-0.0375777238585782,-0.03740641101707267,-0.01118520871870754,0.11949579547844966,0.3243812080597864,0.07992796361504087,0.11691086379379206,0.28078046865315653,0.051458946585620884
594,88.344,-0.036754174648506194,-0.035175367408156764,-0.010640288381330987,0.12633978961785475,0.34160195878127575,0.08273482366166267,0.09141545816090801,0.2434069555369057,0.03397988019355364
595,88.3508,-0.03587776411946687,-0.03280550334794922,-0.01007160085837289,0.1314280130402922,0.35541688245494824,0.0845262125021741,0.06118877475391314,0.17092544596516437,0.01974683287744218
596,88.3575,-0.03498657856408221,-0.03039594790038264,-0.009501378418657365,0.13459752588069937,0.3638534004012792,0.08568944114437727,0.035288945562723176,0.08587616988436822,0.0156610210286995
597,88.3643,-0.03406490004773961,-0.027911026750868467,-0.008913775259497677,0.13648439069071744,0.3670057612207122,0.08713501743204308,0.021301249686494293,0.008668342960718608,0.027694201842760367
598,88.371,-0.03314604447454444,-0.025456198892038786,-0.008320589818806495,0.13780085503938863,0.3657786742513761,0.08993526337142597,0.018770990317936654,-0.046019999001522045,0.05754329620847722
599,88.3778,-0.032205095696747524,-0.022982094793397127,-0.007691121937207123,0.13894878548918227,0.36189900181987544,0.09520234886372789,0.015657341771060537,-0.07033779157041008,0.1004253058986518
600,88.3845,-0.03127321917505435,-0.02057194296981472,-0.007026052391961819,0.13922331053824635,0.3575493037261182,0.10332587359728256,-0.007300994206916322,-0.062063929855180854,0.14684901879751117
601,88.3913,-0.030334824112794877,-0.018150259090290926,-0.006285606217306733,0.136775237185195,0.3547106608398755,0.11445241306603054,-0.06612077310679915,-0.023071663496491424,0.186854295632603
602,88.398,-0.029443711205467505,-0.015771728753588638,-0.005474730502410936,0.12922861574854547,0.35529839489267573,0.12760003914184923,-0.16359302486824584,0.04096187073708951,0.2133501065075049
603,88.4048,-0.028615973045677562,-0.013337448664811607,-0.004557591552928076,0.11422378418973195,0.36066633710074125,0.14214671070611568,-0.2864266814120105,0.12003159102450685,0.22292862404987965
604,88.4115,-0.027927430050076203,-0.010885741579308628,-0.0035570006649424052,0.09131143837755407,0.37118652424242066,0.15653713645337355,-0.4110088559611973,0.20019543559989855,0.21510571762515374
