,Time,Position X,Position Y,Position Z,Velocity X,Velocity Y,Velocity Z,Filtered Acc X,Filtered Acc Y,Filtered Axx Z
0,312.869,0.0,0.0,0.0,0.0,0.0,0.0,-0.00015488220589434374,0.0012940190509442733,0.00012240715221240064
1,312.876,-1.6894499191653978e-07,1.3543279890122067e-06,1.2646796899886014e-07,-4.826999769079742e-05,0.0003869508540063533,3.6133705428513354e-05,-0.0012514520582793081,0.00997969693359447,0.0009303392838075
2,312.883,-1.2373818328846975e-06,9.852111352201041e-06,9.149910712134786e-07,-0.0002569976711570295,0.0020409872497601502,0.00018915860948978807,-0.004829776305450053,0.038210238197963195,0.003528002877922853
3,312.89,-5.004094203322587e-06,4.0683592199477095e-05,3.7195649043714943e-06,-0.0008192058632530272,0.006768007278026713,0.0006121481999833581,-0.011550018224518196,0.09951030357036121,0.008795692646273709
4,312.896,-1.258007415827329e-05,0.00010791378158218586,9.56297241070848e-06,-0.0017061207883851488,0.01564205584943587,0.0013356543021196701,-0.018596699398315524,0.20212340319551658,0.015796670771504276
5,312.903,-2.9302399834717454e-05,0.0002830089549205355,2.3326163276854476e-05,-0.003071686547738341,0.03438513653291399,0.002596685945347805,-0.021188716164512213,0.3439515469211235,0.02094316956212454
6,312.91,-5.5745392164704453e-05,0.00062625258992645,4.6339065186947025e-05,-0.004483454117966833,0.06368447346870579,0.00397842888610251,-0.019942777558842655,0.5096772788762652,0.019313564119428795
7,312.917,-9.252884214510684e-05,0.0012140077674487073,7.73306786227864e-05,-0.006026103019368825,0.1042455772531828,0.004876317809917176,-0.02500191088983879,0.6720602967128185,0.006846204254111194
8,312.923,-0.00013533703945990498,0.0019692571557627125,0.00010557813662250974,-0.008243296085495752,0.1475042188502835,0.00453950152327898,-0.050361679670863725,0.7983243095456607,-0.018294771863389524
9,312.93,-0.0002118003038157482,0.0032009284169328455,0.00012852514475001294,-0.013603350873300984,0.204401855769503,0.0020167865131458184,-0.10580217088830934,0.8593740575005736,-0.05520389660957405
10,312.937,-0.0003429924309160925,0.004835660550697719,0.00012396125611907749,-0.02388011401248489,0.262664468162984,-0.003320754693412162,-0.19360874311032752,0.8380925273005382,-0.10030402641217043
11,312.944,-0.0005704795163969874,0.006863107137353833,7.090439935818907e-05,-0.04111619612486722,0.3166059851669207,-0.011838347238259413,-0.3085601819811742,0.7334800281708774,-0.14785389397395718
12,312.95,-0.0008831871613995401,0.008876877720810115,-3.000533926091367e-05,-0.06311968554314015,0.35465087598832745,-0.021798232301599555,-0.43935031475237996,0.559686371553988,-0.19068798197712175
13,312.957,-0.001446432191878278,0.01146771381086031,-0.0002320750989936986,-0.0978074660220985,0.3855880068826283,-0.035935984764869165,-0.5712694608644155,0.3416591700436222,-0.22121188664728852
14,312.964,-0.0022825293485650515,0.014221034493930758,-0.0005381514719899852,-0.1410774358882375,0.40107504542265143,-0.05151440751972167,-0.6893902479223509,0.10955180967821666,-0.2326615492308836
15,312.971,-0.0034467442693925905,0.017028853820139883,-0.0009531771145124439,-0.1915553986336788,0.4011590477793827,-0.06706434748661036,-0.7812725237800934,-0.1071044221042972,-0.22038204777078887
16,312.977,-0.004739009035438449,0.019401316728493864,-0.001391116609372671,-0.23919952338363143,0.3896619216756601,-0.07891548413415131,-0.8381770249165061,-0.28368910758479643,-0.18244449162158413
17,312.984,-0.006616707161304402,0.022046669843175683,-0.001979779385762994,-0.297285655434829,0.36615325394717657,-0.08927388054867792,-0.854147849418942,-0.40123002465030505,-0.1193447873594925
18,312.991,-0.008899109310966087,0.02450817506047598,-0.0026230842956687164,-0.3548292444680435,0.33713395099526194,-0.09452752228139713,-0.8223701702972235,-0.4442400813315364,-0.0337187455555761
19,312.998,-0.011569601329465558,0.026766917203118253,-0.0032804619201452405,-0.4081684751026886,0.30822094690206936,-0.0932946561403327,-0.731654923013569,-0.39813303408859485,0.0696379910548344
20,313.004,-0.01413345458781062,0.028558950749836214,-0.003817912450680836,-0.4464492776749184,0.2891235686677317,-0.08585552070401034,-0.5695302446038812,-0.2509971729391699,0.1832222427758428
21,313.011,-0.017367069931891122,0.030552121462909112,-0.004361485055944792,-0.477440820633136,0.2803537779241182,-0.06945093794272342,-0.3334005788153718,-0.004508478651688547,0.29472115747588734
22,313.018,-0.02075440025343287,0.03255164545388342,-0.004765902178684968,-0.4903678426716739,0.29093879092991615,-0.04609681141246811,-0.04322496285084846,0.31290017512809787,0.3856954557531319
23,313.025,-0.02416135353088876,0.034703573255458246,-0.004989988255493892,-0.4830473794578843,0.32389772380530846,-0.017927781961464637,0.2565048207252611,0.6473500595994672,0.4350021452474527
24,313.031,-0.026991703347232006,0.03678693118246453,-0.0050215710324731455,-0.460402559318693,0.37055491852680345,0.007400189635097119,0.5132048538011463,0.9385532040455147,0.4259092973770529
25,313.038,-0.030070066917032682,0.03963052682598174,-0.004876239506591046,-0.4191298891951576,0.4419009796203891,0.0341231034740446,0.689264028422533,1.1400963739313734,0.3526560883248762
26,313.045,-0.03282843682034508,0.043008314730780206,-0.0045681461894729,-0.3689757974649646,0.5231812788927694,0.05390355855964847,0.7719628425609946,1.2279847393167722,0.22364250455676857
27,313.052,-0.03522628167141787,0.046962218253003486,-0.004156758816789827,-0.31612273141248665,0.6065054417416466,0.06363569077828869,0.7678979677037663,1.1996438261047264,0.05990072430566571
28,313.058,-0.03699396801395308,0.05080153345388042,-0.003779421826329242,-0.27310604943534994,0.6732662918900119,0.062143306042497355,0.694262300323162,1.0695935501885367,-0.11062768800881101
29,313.065,-0.038753339464016164,0.0557467445587178,-0.003388924836888058,-0.22957150772517299,0.7396511666339443,0.049427262369189706,0.5741056427168256,0.8645131090357056,-0.2598510519511305
30,313.072,-0.04023935600127224,0.061102400667795924,-0.00311794990800948,-0.1950046457762601,0.7905362931015693,0.027994145881777323,0.4329912018846351,0.6180122754909346,-0.364597415958679
31,313.079,-0.04151699682092246,0.06675422557918839,-0.003015051198977472,-0.17003558840925653,0.8242708244379832,0.001405485270203951,0.2944760158265454,0.36483482567845643,-0.4100565356690247
32,313.085,-0.042495656423479924,0.0717439817908835,-0.0030774253824221937,-0.15618427911143046,0.8389812461348694,-0.022196879751875596,0.17633747290783924,0.13518035779246373,-0.39220060692266756
33,313.092,-0.04355694190637743,0.07762718855473028,-0.0033181387950882084,-0.1470401445733553,0.8419349721058673,-0.04657838100979378,0.09007459115273314,-0.04912429318336432,-0.31814831106085123
34,313.099,-0.04457019795196079,0.08349370138354427,-0.00370688694617073,-0.14246158273596646,0.8342115504112194,-0.06449251929941871,0.04332065849595467,-0.17589565886498848,-0.20377561052332518
35,313.106,-0.04555745894498078,0.08928289628394134,-0.004191261501152199,-0.13961298669811603,0.8198441354153335,-0.07390021069518776,0.03967247190457909,-0.24269536998862917,-0.07031511641815497
36,313.112,-0.046385222033225725,0.09415790198709023,-0.004635658406476409,-0.13630804271554708,0.805157765626537,-0.07423209107884153,0.07266436016186417,-0.2565022761231583,0.05903432281883934
37,313.119,-0.04731581787367083,0.09973530102160075,-0.0051285757215960535,-0.12957648312572217,0.7883848156610439,-0.06660142752667073,0.12345793847718159,-0.23217341014165957,0.1632831440360965
38,313.126,-0.04818781643416723,0.10520325015924753,-0.005547812849077671,-0.11956596273223616,0.7738863665353202,-0.05318060889753567,0.16819605997023215,-0.19023526519107192,0.22772903732580588
39,313.133,-0.04898227356447201,0.11057910530049156,-0.005863124759685919,-0.10742178878325313,0.7620722452475919,-0.03690850841904228,0.18562139914386297,-0.15396619249965876,0.24635452487744425
40,313.139,-0.04959621846442781,0.11512521042155086,-0.006043228435952392,-0.09722651120103762,0.7532961284316043,-0.02312605033616185,0.16092159573433468,-0.1443387609739419,0.22211867384704784
41,313.146,-0.050246731434905975,0.12035995753717839,-0.0061585924750735075,-0.08863433750687501,0.7423459046037655,-0.009835103698419154,0.08940922771291729,-0.17469326111110042,0.16510971964783866
42,313.153,-0.050859105385293334,0.12550554518296783,-0.0061968623905795115,-0.08632964831796003,0.7278219941921682,-0.0010991578747169672,-0.022262686804063573,-0.24845722238987253,0.08940986869843498
43,313.16,-0.051485264418359766,0.13052719475222996,-0.006192615982247917,-0.09257293255803616,0.7069350255959888,0.0023124173980289078,-0.15963383210538412,-0.36007936382355193,0.009985520370453032
44,313.166,-0.05208174685295902,0.13469310402870305,-0.00618313602033278,-0.10625454564264895,0.6817013999015636,0.0008475699070314262,-0.30541159063248896,-0.4976252106078678,-0.05977647824102606
45,313.173,-0.05291537692719346,0.13932765056224392,-0.006197566765039818,-0.1319254755670204,0.6424547525377391,-0.004970639823324998,-0.4425045078270284,-0.6458160071604397,-0.10973560154600673
46,313.18,-0.05395873461799294,0.14365249283166406,-0.006261627370120182,-0.16617672180404708,0.5932144672957033,-0.013332390199623307,-0.5553969522464122,-0.7887873412088705,-0.13388189638483855
47,313.187,-0.05526461329972047,0.14760067551761358,-0.006386692222112956,-0.20693147297497838,0.5348377286890684,-0.022400424655429206,-0.6319824913207348,-0.912004282160202,-0.13031301088433725
48,313.193,-0.05662063076109158,0.150640805029815,-0.006541392596909287,-0.24507434748418166,0.47853877538283657,-0.02916636694359004,-0.6645144269059288,-1.0016275665171896,-0.09966502402709626
49,313.2,-0.05849355524868867,0.15374532238064265,-0.006762633484688536,-0.29004693468603293,0.40846618199585816,-0.03404531527900743,-0.6457506105014611,-1.03991984954169,-0.04248191082728174
50,313.207,-0.06066910225494252,0.15635942794160373,-0.00700118515429375,-0.33153792424319556,0.3384211211353443,-0.03411230460814768,-0.5630789536101509,-1.0008254132709005,0.0405301935409736
51,313.214,-0.06310547895302827,0.15850532188981917,-0.007218058996595062,-0.36456970378080955,0.274691435497197,-0.02785165033504013,-0.3992936503325204,-0.8559229779622146,0.14187239691996223
52,313.22,-0.06534099806775572,0.16002531626271774,-0.007351479020931682,-0.38060333445811345,0.2319733554665698,-0.016621691110287516,-0.14569812148311273,-0.5960876485148263,0.2398399861635913
53,313.227,-0.06800139901511267,0.16154728665879486,-0.007402749260816252,-0.37951122193521725,0.20287532913011236,0.00197305114315895,0.17751654565459046,-0.25167604351843553,0.3019131610399951
54,313.234,-0.0705746978666249,0.16295102990656382,-0.00731663247990889,-0.3557170213534691,0.19819417023215835,0.022631743401784095,0.5157215145751259,0.11529165426797344,0.299972651389337
55,313.241,-0.07290617533082028,0.1644050762321462,-0.0070951940928231285,-0.3104193969875917,0.2172476370767941,0.040636367194102685,0.8040133990030527,0.43982631872912925,0.22458754259872848
56,313.247,-0.07460960553131349,0.16580678373235327,-0.006823749368115508,-0.2573906698407655,0.2499881963233317,0.04984520770800533,0.998461695161723,0.6730429841208512,0.08842592322492776
57,313.254,-0.07616110305578797,0.16773197699543463,-0.006473801348759766,-0.185894337151627,0.3000670216995224,0.05013994067927809,1.084566008024741,0.7859910205350238,-0.07983895210190556
58,313.261,-0.07720383438507727,0.17001951825150205,-0.006161901745304942,-0.11202889978796123,0.35351619431927,0.03897423173632224,1.0674849650718823,0.771237204909939,-0.24547117471285437
59,313.268,-0.07774396627158549,0.17266412162258157,-0.005963894626726757,-0.042294496358384684,0.40208476885190675,0.01759923071500661,0.964209371499817,0.6437960205907298,-0.377284113687624
60,313.274,-0.07784188910776395,0.17517196617926065,-0.005931687952720642,0.009653550965720417,0.4338634167037935,-0.006863672713019485,0.8015328314562402,0.4363773941069516,-0.4542231943774573
61,313.281,-0.07760446645921674,0.17828428112512174,-0.006090467653029492,0.05818149147628917,0.4553694249701697,-0.03850195594661961,0.6123165320014741,0.19019475748291884,-0.4675502445958785
62,313.288,-0.07707223928948725,0.18148821024840409,-0.00646651904703473,0.09388341416060034,0.46003889596699193,-0.0689412994833716,0.42785002215997064,-0.054150892297591624,-0.4192923873129427
63,313.295,-0.07633105085673719,0.18467032548159998,-0.007037823469698649,0.11788470948212142,0.44913688494546944,-0.09428853556334586,0.27142169132028215,-0.2634764617796261,-0.31919297225592547
64,313.301,-0.07558605948461251,0.18730518226416995,-0.007647817963809524,0.13044574789393842,0.4291487092486448,-0.10904296247456789,0.15553479269400208,-0.41593243242034933,-0.18231797223213
65,313.308,-0.07464475291003313,0.19019898573782568,-0.008436345349253943,0.1384989876999812,0.3976522832238262,-0.11625057622367684,0.07909432722643159,-0.5017080323894946,-0.02767404482054926
66,313.315,-0.07366269478930428,0.19285966321900055,-0.009238557969357096,0.14208904679377587,0.36254128282559495,-0.11295302951991733,0.025501143158958503,-0.5212421493226576,0.12374724015978064
67,313.322,-0.07266880673703432,0.19527690330586348,-0.009984029015622575,0.14187896814029102,0.3280987419918927,-0.10003869798435314,-0.031621731986356406,-0.482232630798926,0.252508566885292
68,313.328,-0.07183052977730504,0.19716789174350677,-0.010531555002124502,0.1375466851041165,0.30223073722550287,-0.08246996418381364,-0.11563490972088307,-0.3970348311278069,0.34466218971429613
69,313.335,-0.07090989085621116,0.19920190955223135,-0.011020071033884124,0.12549300663680416,0.2789172081239643,-0.057106044890264426,-0.23554598625433307,-0.2821989862023247,0.39430923109362753
70,313.342,-0.07010555935181007,0.2011013292160018,-0.011323932863165142,0.10431599462048699,0.26377412438148523,-0.029711620618535863,-0.38144094218714086,-0.1589909568455995,0.4038204424794504
71,313.349,-0.06948436674271145,0.2029224454031145,-0.011437533379348894,0.0731676079789896,0.2565447862217729,-0.002745669719655796,-0.5260594825676397,-0.05163399545592727,0.3818257669472665
72,313.355,-0.06914749237661028,0.20445861628714548,-0.011390274793830448,0.03912384738753539,0.25551217511944146,0.01849853155906261,-0.6311063382883323,0.016534986031149054,0.3402761155718054
73,313.362,-0.06902842829780936,0.20625231534048297,-0.01118484479232316,-0.00510553915872794,0.2569732686909048,0.0401957545858352,-0.6575057346048203,0.026033608354506178,0.2918670300562585
74,313.369,-0.06921245383762807,0.2080497809603387,-0.01083861801046117,-0.04747318650372184,0.25658833698179007,0.058726183088948364,-0.5768650340634851,-0.03724849705945818,0.24801235217343615
75,313.376,-0.06965968818964234,0.20981977332915128,-0.010371666476351803,-0.08030805692987446,0.24912376839697842,0.074688540943287,-0.37977067236009454,-0.18022983462267075,0.21704693644214165
76,313.382,-0.07018199086114178,0.21126331248172875,-0.009886512195104604,-0.09379283356910936,0.23205594912654365,0.08702955280500692,-0.07858417321817884,-0.399914566382541,0.2024307262208128
77,313.389,-0.07081254885982893,0.21275776253590198,-0.009228789883164177,-0.08636659462708958,0.194929780636935,0.10089110774926682,0.2949457803787566,-0.6817470317482348,0.2014221970287895
78,313.396,-0.07129790062914289,0.21392007735544535,-0.008473648731758654,-0.05230533946251111,0.13716016780378862,0.11486350693787102,0.6974203374976443,-1.0013561346339095,0.20566014545147246
79,313.403,-0.07144990630348885,0.21460029066792397,-0.007620388834625374,0.008875146792268147,0.05718649290424779,0.1289250351000349,1.0850577696974162,-1.3286568055497903,0.2040189472969267
80,313.409,-0.07117539632809446,0.2146821697478364,-0.006812445536269823,0.08262817833962827,-0.02989346626663804,0.14038939768641404,1.4218476311515547,-1.6312380675310627,0.18566093273118411
81,313.416,-0.07022426935884354,0.21405151769389308,-0.0057904205312006764,0.18912238430329528,-0.15029283485989686,0.1516177466188477,1.6808343233994294,-1.8765673092336197,0.14147419445075357
82,313.423,-0.06847722240559911,0.21252979658876034,-0.0047042429490175295,0.310033888051898,-0.2844846237491456,0.15871870543325822,1.8418919825406739,-2.0330767701601125,0.06541045785604026
83,313.43,-0.06585781675639943,0.21004550909326727,-0.0035900774316465433,0.43836772600462115,-0.42531180353407716,0.15961429952965323,1.8970821670016238,-2.0698877571127334,-0.03931754870345027
84,313.436,-0.06289698287002321,0.20713874636873594,-0.0026492455295628763,0.5485769027920878,-0.5436091046475824,0.1539963344997094,1.848987312653662,-1.9511014394719373,-0.15164011879667222
85,313.443,-0.05863427246467013,0.20290343795801277,-0.0016181606542412322,0.6693403558793511,-0.6664790127010313,0.140599344163407,1.669425574437591,-1.628682484217193,-0.23867783123265393
86,313.45,-0.05359193704619303,0.19791312496203803,-0.0006961071118163293,0.7713269065416478,-0.7593247004335875,0.12284452510066268,1.3019269745899666,-1.0763533182372587,-0.2786043646746899
87,313.457,-0.047943402980345794,0.19242527315048302,9.738570242351526e-05,0.8425399694135519,-0.8086329600095804,0.10386770753913087,0.7728477335884698,-0.3602304452864058,-0.2742804507025798
88,313.463,-0.04279984266231288,0.18757362611381376,0.0006748175501510009,0.8719801365892327,-0.8085827188724509,0.0886095750357786,0.22783945913416248,0.36193816868937806,-0.2443517190760712
89,313.47,-0.0366918868210554,0.1820691424926128,0.0012408599141748374,0.8731501037688013,-0.7641268871838437,0.07311681468520191,-0.193752759086809,0.9332713265751452,-0.20702596415973953
90,313.477,-0.03065700671874988,0.1769843955476133,0.001707073435876904,0.8511013540455451,-0.6886579542553442,0.06008704865923216,-0.44863202859500456,1.265497087250707,-0.1725929977856532
91,313.484,-0.02482059536068178,0.1724767856630086,0.0020895205213907185,0.816444748258434,-0.5992305842022146,0.049183547201779615,-0.5610794802014683,1.339946887808946,-0.14507777976820058
92,313.49,-0.020022433444264357,0.16910471683919576,0.0023607478613503004,0.7829425572064037,-0.5247923570633688,0.04122556611764929,-0.5776780993277416,1.1902486814727968,-0.12541829803248652
93,313.497,-0.014676909593534628,0.1656803495450737,0.0026206601573275524,0.7443499715724275,-0.4535982983993702,0.03303508987579826,-0.5467071941487288,0.8839723438794665,-0.11320917099094377
94,313.504,-0.009592860763835179,0.16267149942500403,0.0028254270505656,0.7082354083406626,-0.40607316447706754,0.025469736763602084,-0.5054815387661573,0.5006605013915262,-0.10720549259202629
95,313.511,-0.004752978360006838,0.15990293290063118,0.0029782715026640976,0.6745881356093038,-0.3849458424860415,0.018200106693080295,-0.4748233048519061,0.11487872063815872,-0.10459335441533518
96,313.517,-0.0007881663772186997,0.15758451634200965,0.003069294147829444,0.6470158586596196,-0.3878596770581011,0.012140775028844414,-0.4623732896295148,-0.21392153247411488,-0.10136660351336131
97,313.524,0.003629177525749922,0.1547899314603896,0.0031307446820424472,0.6150823993305131,-0.4105931462613448,0.005416520460572537,-0.46800003078013863,-0.4484123853477556,-0.09454286515671963
98,313.531,0.00782012145633429,0.1517927289635697,0.0031473117987431353,0.5823301522641652,-0.4457504242580146,-0.0006830585460936428,-0.48622846479100285,-0.5758860825765519,-0.08316683785564795
99,313.538,0.011777060587454749,0.1485307522610424,0.0031245000306577334,0.5482238851980149,-0.4862429193205536,-0.0058345894783022045,-0.5074490635371045,-0.6038525951140249,-0.06692172252225541
100,313.544,0.014975628259973757,0.14551128720300338,0.003079616356953975,0.5179653389799983,-0.5202454333638508,-0.009126635089687586,-0.5210552751228436,-0.5519112332900673,-0.044976686938020746
101,313.551,0.018476406341907853,0.14174975427333084,0.0030082984344445814,0.48225697014331415,-0.554478260827538,-0.011249914198695997,-0.5192990860696319,-0.4454536004463052,-0.01688451683716949
102,313.558,0.021729871814990885,0.1377774296245083,0.002929430888611674,0.4473045935940303,-0.5804716388352266,-0.011283670324975705,-0.49902962962719044,-0.31185694196755065,0.015901040572748815
103,313.565,0.02474561477746933,0.13365541906878567,0.002858338998251267,0.4143362528277675,-0.5972456627989717,-0.009028298349411809,-0.4614947016389617,-0.17685003496670829,0.04980865570659181
104,313.571,0.027154590823688728,0.13005096234754426,0.002815658039677603,0.3886557625748645,-0.604239910942425,-0.0051986878417415675,-0.4113990406270985,-0.06088823934782581,0.08036187509485265
105,313.578,0.02978308391465246,0.12581676210415332,0.0028013818218974294,0.36234226342033493,-0.6055315871782279,0.001119768475947456,-0.3552381510372889,0.023255576502791517,0.10372476342480541
106,313.585,0.03224083686874656,0.1215893694071143,0.0028357952322354933,0.3398728663203359,-0.6022948976892001,0.008712634477778019,-0.29940209235390663,0.07104455916390802,0.1174914812903372
107,313.592,0.03455407330114614,0.11739204955123209,0.002925370729029564,0.3210518286505003,-0.5969393468477207,0.016880364606223962,-0.24894411498854943,0.08498807004981329,0.12047328542962492
108,313.598,0.03644013755881101,0.1138243108627194,0.003047186535675908,0.30763625723478627,-0.5923068826508331,0.02372490427569676,-0.20705840764150116,0.07247189153630154,0.11217631694699766
109,313.605,0.038547668205213166,0.10969208028342908,0.003237881178753424,0.2945153560225435,-0.5883304257169821,0.03075927946069745,-0.1752157550726756,0.04338118291093882,0.09276843803327925
110,313.612,0.04056971313965614,0.10557991081708722,0.003471975274724324,0.28321176810360765,-0.5865751360941405,0.03612474795951189,-0.15411144109166938,0.007758739571410522,0.06355313963699283
111,313.619,0.042516315971658065,0.10147167903012709,0.0037357669027777993,0.2729604696108298,-0.5872053744650557,0.03924428862714148,-0.14455756682702509,-0.02612057628177036,0.02733389452939588
112,313.625,0.044128330053305985,0.09794149708785789,0.003972605007417295,0.2643775576076687,-0.5895219396302063,0.039701746253061436,-0.14718025064722218,-0.05262072562939655,-0.01178466259929043
113,313.632,0.04594191273376565,0.09380027306104659,0.004243199857864375,0.25378892252329305,-0.5936849251721765,0.0376110681603347,-0.1613169741766922,-0.06866681298593737,-0.04912671875127238
114,313.639,0.047676905075797395,0.08962740939161674,0.0044909151883143,0.24192317519970832,-0.5985618375212124,0.03316474053959329,-0.18438859510759836,-0.07342080391636681,-0.08041592019382336
115,313.646,0.04932270132433533,0.08542048743069475,0.004701081197212007,0.22830432438222298,-0.6034158655984976,0.0268826905739945,-0.21239320434118988,-0.06800008547375447,-0.10261002839628948
116,313.652,0.05065249612372738,0.0817891323360936,0.004843238466529511,0.21496060875054285,-0.6070358326075715,0.020503065865396183,-0.24116690136065014,-0.05504454951342076,-0.11423686320713929
117,313.659,0.052096119151397564,0.07752870419535939,0.004959202769830087,0.19750311344064295,-0.6102293504584783,0.012629592220459125,-0.2674528416530168,-0.03799779131519808,-0.11515481474117516
118,313.666,0.05341177824771841,0.07325009739595385,0.005021034146663307,0.1783994855079019,-0.612229735085086,0.0050365154461624526,-0.2891265620527014,-0.02028291256886638,-0.10606757077685153
119,313.673,0.05458921935838562,0.06896149112234111,0.005032955272506922,0.1580122603967763,-0.6130863430891076,-0.0016304794908462818,-0.3048501231881756,-0.004674146570186254,-0.0881736529118545
120,313.679,0.05548268615844797,0.06528317862647333,0.005009826046871487,0.1398100062920734,-0.613017822205914,-0.006079262387668421,-0.31385433092505055,0.007003208420862596,-0.06304288201913771
121,313.686,0.05638568467685874,0.06099455880166138,0.004955777706157612,0.11818957039653318,-0.6123021277394817,-0.009363120673427709,-0.31605164091256643,0.013848370177969652,-0.03263150469824112
122,313.693,0.0571375512201639,0.05671198392267777,0.004886394589821015,0.09662944197621673,-0.6112906948263906,-0.010460626851300284,-0.3120972877750672,0.015619473816821659,0.000655937743403884
123,313.7,0.05774004053170597,0.05243632638326712,0.004817330840904744,0.07551036132139399,-0.6103257450043503,-0.009271872839048711,-0.3032018249933866,0.012494096990147759,0.03397811195758542
124,313.706,0.05814066277164758,0.0487759251916824,0.004770372283540409,0.05803038532517232,-0.6098079855180639,-0.006380979615654996,-0.2909520058641848,0.0051048277627465674,0.0642849110380319
125,313.713,0.058478629888924126,0.044507251064599754,0.004744091216409772,0.03853164818234367,-0.6098131936475332,-0.001127896707378979,-0.2771388054821895,-0.005256565307292474,0.08876234066718164
126,313.72,0.05868342961277127,0.040235928416445986,0.0047595065263131816,0.01998255863108559,-0.6105647058241004,0.005532270965492856,-0.26328426170020564,-0.016638553284003033,0.10527997239493367
127,313.727,0.05876163199167712,0.0359567557017595,0.004824410554225542,0.002360978199320053,-0.6120560698096653,0.013011737009604615,-0.25011606014833715,-0.026811962017231558,0.11263239302378444
128,313.733,0.0587327493709478,0.03227906838750769,0.004922184327181418,-0.011988518442379859,-0.6138397016017519,0.019579520642198596,-0.23763108563645838,-0.033814646528265206,0.11061012209138811
129,313.74,0.058593171771064385,0.027973761237621457,0.005084547948086023,-0.027890795809995296,-0.6162480555077209,0.026810085330512514,-0.22567777307833708,-0.036352139886121695,0.10005056481301568
130,313.747,0.05834507908489826,0.023651582173152677,0.005294188061101101,-0.04299282880884552,-0.6186602486253341,0.033087089816609884,-0.21431616686007016,-0.03392650099565442,0.08282838499853021
131,313.754,0.05799391213847555,0.019313671696251707,0.005543148156822803,-0.05734058445471379,-0.6207427447740576,0.03804436610382566,-0.20370209176641613,-0.026746501470513117,0.06160061506665102
132,313.76,0.057614779152358325,0.015585480498615668,0.0057803143333740505,-0.0690370775849548,-0.6219876544437949,0.04101102608029474,-0.19386803089850912,-0.015568650993822646,0.03923776081376422
133,313.767,0.057086049239463345,0.011229509946865841,0.0060742762537383255,-0.082028611813504,-0.6225753603409804,0.042978094023723885,-0.18463705722434412,-0.0015540127725314566,0.018072269870304712
134,313.774,0.05646855583135369,0.006872962497632784,0.006377213639197283,-0.09439807621769927,-0.6221524822961465,0.043575444678773605,-0.17574418274143505,0.013874458441937616,-0.0006686085049690164
135,313.781,0.05576658219418288,0.002523070464528868,0.0066801421552826245,-0.10616582011667533,-0.6206738128755127,0.04297555991697627,-0.1671060813714052,0.029206203896743135,-0.016808883424251186
136,313.787,0.0551008189681215,-0.0011945924485063561,0.006933817553935207,-0.11575525523815933,-0.6185471581420517,0.041582906300948685,-0.15884400085269965,0.0430799398074747,-0.030528165620159996
137,313.794,0.054253314587418035,-0.005512693181291876,0.007216241850104308,-0.12638885353408733,-0.6151959083672154,0.03910974974730824,-0.1509632158514289,0.05455788102500475,-0.04152662966492496
138,313.801,0.05333325242970027,-0.009804907488239931,0.007479171746041554,-0.13648604867080028,-0.6111510364742095,0.036013077663279595,-0.1432160294771636,0.06328844608110475,-0.04869413405958657
139,313.808,0.052344372350755015,-0.014067026986021313,0.0077193303611664986,-0.14605111674192842,-0.6065973914624577,0.03260366951522693,-0.1354598273902627,0.06938085810821178,-0.05063811637543816
140,313.814,0.051444805150414274,-0.017694040084433024,0.007906359046044724,-0.15380461670355344,-0.6024069746690063,0.029739225443883764,-0.1280858265482384,0.07305367333835458,-0.046725885648001356
141,313.821,0.05033813556285906,-0.02189317104149425,0.008104378785266382,-0.16238669402628228,-0.597344727347629,0.026837842905121277,-0.12195084165206323,0.07443363145332414,-0.037805166204143134
142,313.828,0.049172615344367426,-0.026056784710853743,0.008284561156521836,-0.1706190826880783,-0.5922591781924657,0.0246428345968185,-0.11789773520597173,0.0737325664168102,-0.026145849784833235
143,313.835,0.04795014379438725,-0.030185149392612274,0.008452140998788325,-0.17865850302029404,-0.5872735880234142,0.02323712033642947,-0.1163287578139979,0.07152135148723172,-0.014809282276079536
144,313.841,0.046857599680023565,-0.033696414458163834,0.008589653961342428,-0.18552286843253002,-0.5831481004881839,0.022600533848052683,-0.11699473227361984,0.0687061993825242,-0.006828636495833686
145,313.848,0.04553058870925715,-0.03776223983458219,0.008746505186914198,-0.19362312321474626,-0.5785162927733737,0.022214102029563646,-0.11900415717415162,0.06624035553704204,-0.004429957519124408
146,313.855,0.04414638632121153,-0.04179609788184882,0.008900458017221181,-0.20186327336943394,-0.5740145778734114,0.021772420915257513,-0.12107054882875126,0.0649159778827483,-0.008438310858698454
147,313.862,0.042704155400778196,-0.0457985545608855,0.00904968344220732,-0.21020270389693826,-0.5695444732791086,0.020863414795037446,-0.12189666591105308,0.0653193972176638,-0.018045354240841607
148,313.868,0.0414215467759499,-0.049204076054999664,0.009170531715194566,-0.21733350438116925,-0.565629358097613,0.01941934286756723,-0.12048309626612563,0.06775748365786416,-0.031039430997644654
149,313.875,0.03987178128375314,-0.05314666775756377,0.00929740657407728,-0.2254566362461602,-0.5608254140627559,0.016830616813182146,-0.11618231124481654,0.07220421973010682,-0.044382452677011436
150,313.882,0.03826658040548179,-0.05705434794113318,0.009403290012562812,-0.23317218611675553,-0.5556546383848481,0.01342179418266232,-0.10860829718604649,0.07844503148220014,-0.05493273885169291
151,313.889,0.036609600195715165,-0.06092414333487451,0.009483412157195089,-0.2402507309590841,-0.5500011883975994,0.009470247140828975,-0.0976233296713424,0.08626681455360562,-0.060194592145437265
152,313.895,0.03515211740643374,-0.06420811645488214,0.009529718976521207,-0.24557686547034127,-0.544656518276753,0.0059653593012829,-0.0834148607838484,0.09540141128877229,-0.058938439676933095
153,313.902,0.033415056598283595,-0.06799660427422895,0.00955821970545079,-0.25072622257220245,-0.537768572964419,0.002177706107163306,-0.06661036559264058,0.10527714611371969,-0.0514138852138848
154,313.909,0.031646162660868796,-0.07173452987651817,0.009562597501036397,-0.25467204526023596,-0.5302101705460246,-0.0009269073684189202,-0.04835018779367441,0.11493501075036253,-0.03903824895979204
155,313.916,0.029854026937550446,-0.07541738585480211,0.009548558557199133,-0.2573667328303551,-0.5220343946772056,-0.0030842194422250925,-0.030158858039429262,0.12326416659542291,-0.023814496700539926
156,313.922,0.028305967006661412,-0.07852729474091603,0.009527259805358637,-0.25865324413019175,-0.5146019006891557,-0.00401536450457304,-0.01357035631445276,0.12937032081922156,-0.00783562718966047
157,313.929,0.026493800289446784,-0.08209800634271407,0.009499051491959301,-0.2591086750778221,-0.5056014141178389,-0.004044153609582792,0.00030148999462409814,0.13285659579591688,0.006996863842923719
158,313.936,0.024681397780848952,-0.08560516746737853,0.009473877879735408,-0.2587206130926166,-0.49644462149986346,-0.003148307025809976,0.01100459851835142,0.13392425824463888,0.019103401466029925
159,313.943,0.02287392608913723,-0.08904817875358916,0.009457413265296716,-0.2576998702532204,-0.4872728888453251,-0.0015558685280987721,0.018734487842011382,0.13329187001036627,0.027291894370689213
160,313.949,0.0213315118512521,-0.09194840259597845,0.0094532052530952,-0.25643820903936804,-0.4794683919464886,0.00015319779426694658,0.0241500586594727,0.1319871973843527,0.030800193561396273
161,313.956,0.019542727783945665,-0.09527307860832539,0.00946149804951784,-0.2546429530478204,-0.4704390401519598,0.002216172612199735,0.028154273941257472,0.1310807002600988,0.02930405983316804
162,313.963,0.017767418034688665,-0.0985346186970606,0.009483283465634445,-0.25258840388238823,-0.46142955662886237,0.00400823199253982,0.031704500183026944,0.13140834028428397,0.022907140302565052
163,313.97,0.016007382763311668,-0.10173281988175029,0.009515554249575262,-0.2502788165106806,-0.4523422104246808,0.005211991990544297,0.0355847480517638,0.13334920992545174,0.012164105025965408
164,313.976,0.014512390680917938,-0.10442303424519186,0.009547732440304884,-0.24805187762290412,-0.4443959107267259,0.005514071586046896,0.040110108254483016,0.13674981124869198,-0.0018962563211233324
165,313.983,0.012786243685683185,-0.10750043361285451,0.009583960570600684,-0.24513297815810142,-0.43486105146197274,0.004836822784174059,0.04493129484008217,0.14104591962915494,-0.01783521749285136
166,313.99,0.011081622604921829,-0.11051003203492694,0.009611591912624277,-0.2419016163447952,-0.42502421198668155,0.0030578463654182962,0.04921362033202463,0.14554792886823173,-0.033994813841702
167,313.997,0.009400495494892074,-0.1134497254590073,0.009623050536405482,-0.2384204150919347,-0.41488819489282347,0.0002160461434950081,0.05221030418735807,0.14976238443522855,-0.048800322167937456
168,314.003,0.007979329771045426,-0.11591228273942257,0.009614650332154338,-0.23530149285917393,-0.40596423191612313,-0.0030161142272228107,0.0538035480719228,0.15356793994473406,-0.06106255559810251
169,314.01,0.006345237506881341,-0.11871670998470059,0.009577780983103534,-0.23158201118737393,-0.39530069530559686,-0.007517985501570975,0.05456261663110539,0.15711152203896878,-0.07009833375015893
170,314.017,0.004737364617906518,-0.12144565771427022,0.009507649566238065,-0.22781024280510445,-0.3843986559994562,-0.012519562174262915,0.05532690825446491,0.16051665610349808,-0.07562134692391322
171,314.024,0.003156155870886773,-0.12409749752950304,0.009401610158313188,-0.2239636849144998,-0.37326986263794765,-0.01777741151853746,0.05674159017996217,0.16371794451373978,-0.0775647736974665
172,314.03,0.0018226026767439343,-0.126307964887671,0.009281389880216425,-0.2205540464685353,-0.36355259008816654,-0.02229601451390529,0.059153863278678186,0.16657740098571813,-0.07602498411616206
173,314.037,0.00029337795251405834,-0.12881250829925198,0.009107612797746393,-0.21636730331111703,-0.352031241791606,-0.02735458047749696,0.06282584749820078,0.16909418911028187,-0.07135506524066812
174,314.044,-0.0012054682607446651,-0.13123580961961026,0.008899832685849925,-0.2118744719053551,-0.34034056402454843,-0.032011165778593864,0.06807166754832984,0.1715107725971658,-0.0643133784347556
175,314.051,-0.002671381200953919,-0.13357664566539737,0.008661281168437087,-0.20695779672556097,-0.3284697347712932,-0.036146410625025466,0.07517442944534633,0.17434285743221684,-0.056165941980579136
176,314.057,-0.0038990483587308085,-0.13551633479069594,0.008435157751562086,-0.2022645891981149,-0.31809330699181404,-0.039228061666281816,0.08435023077411888,0.17835753055041484,-0.048581042335901256
177,314.064,-0.005293255226605903,-0.13769941343144615,0.008149543462425787,-0.19608023019448453,-0.30564344750780237,-0.042376020944030715,0.09582951616512127,0.18436599988200328,-0.043133960901600155
178,314.071,-0.006641125939284432,-0.13979360431799426,0.007842862562222835,-0.18902568771339157,-0.2926968057912269,-0.04524709339960754,0.10970280792364716,0.1928311561751092,-0.04051401428651253
179,314.078,-0.007936046501178172,-0.141794857759478,0.007516473602892525,-0.18095161568755977,-0.2790898917797947,-0.04800689498117161,0.12553325349215838,0.20360286742936948,-0.03989211192331185
180,314.084,-0.008998111989305278,-0.1434323654287649,0.007221472778098273,-0.17307021368645187,-0.2667459979798959,-0.0503267132831095,0.14235985989077635,0.2159727538697785,-0.03895976586461139
181,314.091,-0.010173373021209034,-0.14524614924816304,0.006860325738451227,-0.16271865257152418,-0.25147795041920784,-0.05285815518740148,0.15923027435254047,0.2288579786485239,-0.03479315847871455
182,314.098,-0.011272190197988386,-0.14695004670392728,0.006483126222921205,-0.1512291122223518,-0.23534989408451623,-0.05491313496395656,0.17551459918193912,0.24102889358846635,-0.025078161392527686
183,314.105,-0.012286797792746058,-0.14853830839484183,0.006094658950304572,-0.1386587719939189,-0.21843916046217532,-0.056077514355002044,0.19071910749156223,0.2516610849269527,-0.008845739839060675
184,314.111,-0.013083856276825845,-0.1498036846562167,0.005758615176918214,-0.12702738936725821,-0.20335292666476834,-0.055937076774310146,0.20463787396881886,0.2611281549418397,0.013619289103847326
185,314.118,-0.013922265070712432,-0.1511632111359778,0.0053736317157013725,-0.11251798031445266,-0.1850832104095523,-0.0540581978589946,0.21809011608443774,0.2711554413992139,0.041121376386674825
186,314.125,-0.014655727722255492,-0.15239210376648676,0.005008772531247626,-0.09704277726912877,-0.16602896973561568,-0.050187283413430143,0.23277603947073086,0.28398507692029384,0.07165674416160292
187,314.132,-0.015276912817724335,-0.1534840168555053,0.004678383479904156,-0.08043867857898537,-0.14594619855517668,-0.04420958839892223,0.2509802072782037,0.30112141948556015,0.10250189933915982
188,314.138,-0.015713079463877826,-0.15430470303096316,0.004433692995470373,-0.0649502034728618,-0.12761585993206426,-0.03735390641272184,0.27548143205824493,0.32193669662947577,0.13052643640691056
189,314.145,-0.016097962782054828,-0.15511807326810292,0.004206227136253554,-0.045016458863345495,-0.10477563639341317,-0.027636339077751364,0.30528321261805896,0.3435074819529807,0.15259244822643334
190,314.152,-0.016336362225455033,-0.15576670178661658,0.004050999961500858,-0.02309766782237888,-0.08054679746750262,-0.01671428228013021,0.3333152614771709,0.362393657314564,0.16561893450477014
191,314.159,-0.016415630677282807,-0.1562420457378115,0.003973860673187067,0.0004495387287455528,-0.05526576001666099,-0.005325514380937155,0.35272668968010085,0.3741630218142069,0.166189958999271
192,314.165,-0.016350282092116492,-0.15650794610745145,0.003969889066010863,0.021333322993255646,-0.03336769652956083,0.0040016453222089,0.3571244237449858,0.3701639905361065,0.15084524001029628
193,314.172,-0.016117921848354998,-0.15665636010829925,0.004030151059670942,0.04505531808140949,-0.009036303712641164,0.013216067152086931,0.3340099475566131,0.3387250305990352,0.11761462665077985
194,314.179,-0.01573003704915687,-0.15664638740210135,0.004144856024991733,0.06576891026173426,0.01188564834063496,0.0195567800826675,0.2694753603132848,0.2708307898589797,0.06712045269778256
195,314.186,-0.01521829336574609,-0.15651101531384337,0.004290093593208612,0.08044357071266926,0.02679209116161828,0.021939667979268027,0.15806718773682168,0.1634646793517138,0.0023043879270943615
196,314.192,-0.014721360490815868,-0.15633407381442913,0.004415572366589333,0.08520072092994697,0.0321884086428474,0.019886589814106237,0.0036309190667246586,0.019959068180262073,-0.07208962431097626
197,314.199,-0.014146566989106444,-0.1561244213223939,0.004528143035134487,0.07902599384405697,0.02771230336717188,0.012276458341629205,-0.1835300425007674,-0.15036927162595087,-0.14962964555682023
198,314.206,-0.013661888689398077,-0.1559885478210426,0.004569365147699185,0.059453520358234396,0.011108697018884447,-0.0004987118945811095,-0.3867090586866509,-0.33337263086661634,-0.22257173196910596
199,314.213,-0.013362262338494224,-0.15601234217405302,0.004505130109060128,0.026154008471376826,-0.01790708359328138,-0.017854156287993608,-0.5834638600349389,-0.5119948526309548,-0.28307478321337876
200,314.219,-0.013322999525271008,-0.15622399687119368,0.004344350622805838,-0.013066404063576696,-0.052644482120606545,-0.03573900579702145,-0.7496591580238212,-0.6687480965408962,-0.3248409171570125
201,314.226,-0.013608411209004644,-0.156767608651306,0.004013790190153388,-0.06847979128883272,-0.1026731693399522,-0.058706832103610926,-0.8647959668212418,-0.7888251455028745,-0.3443209360336595
202,314.233,-0.01430171423159371,-0.15768473733614766,0.0035205050206802836,-0.12960678659361588,-0.15936359775747228,-0.08223178774574685,-0.9161236949750025,-0.8628362538676563,-0.34107274047649605
203,314.24,-0.015427225540956746,-0.15901056020941473,0.002865792108027191,-0.1919678732241645,-0.2194429374614199,-0.10482904444071735,-0.9007509077691721,-0.8875602250203491,-0.3172926601140464
204,314.246,-0.0167313256246664,-0.16048168519460482,0.0021844748760555203,-0.2427321546810962,-0.2709320576042508,-0.12227669955090688,-0.8247544536325379,-0.8625827950416456,-0.2757625663656559
205,314.253,-0.018613098590259263,-0.16257549140995242,0.0012695008367564027,-0.294917264059338,-0.32729828963749147,-0.13914445453436852,-0.6956456066240806,-0.7796332240649337,-0.215675240296138
206,314.26,-0.02082234677921439,-0.16503366434781502,0.00025379647677304393,-0.33629650421310386,-0.3750368354656096,-0.15105679117495516,-0.5099281666751257,-0.6112173235032692,-0.13138769704239164
207,314.267,-0.023268047602284597,-0.16777121730832983,-0.0008217511819496939,-0.3624751595207416,-0.4071211532523507,-0.15624253988846465,-0.2527803833574413,-0.3235512201953773,-0.019697789803073268
208,314.273,-0.025458132124923198,-0.17023530664371322,-0.001751157132146454,-0.3675530146886401,-0.41424195853819107,-0.15355944350897618,0.08018134196293646,0.08151120021552159,0.11089768577419701
209,314.28,-0.027966154573155322,-0.17305968396896215,-0.0027840905838800957,-0.3490248276687023,-0.392722991538911,-0.14156439984567845,0.4596327352215697,0.5454385008092043,0.2385748999096155
210,314.287,-0.030255076550607753,-0.17562509144231628,-0.0037062138480992287,-0.3049528801743825,-0.3402505722760258,-0.12189938993102836,0.8243923904195098,0.9833322608051145,0.3343602268997011
211,314.294,-0.03215753676397757,-0.1777299480808651,-0.00447448457127248,-0.23860718078803406,-0.26113703873749294,-0.0976065309754578,1.1085729045968025,1.3216206767708107,0.37340611985926075
212,314.3,-0.03337926900848379,-0.17904681328774852,-0.004996642922646033,-0.16863690071209572,-0.17781803022154974,-0.0764462528148957,1.2697547293932023,1.5104374509807783,0.34584317051890306
213,314.307,-0.034251383384348855,-0.17992645082258904,-0.005459054607342873,-0.08053863524917139,-0.07350697973270273,-0.05567137138410695,1.29696611711289,1.5286388169095229,0.2594277842712183
214,314.314,-0.034514994036273845,-0.18009052988339205,-0.00580143106822359,0.005221306127799294,0.026627248074731144,-0.04215047458174231,1.2016282442034298,1.3887467707816963,0.13450014953914755
215,314.321,-0.034213031650583155,-0.17960136629746268,-0.006080697334275395,0.08105366121233613,0.11313377647642174,-0.03763988714728792,1.0077283828807473,1.1315992160633461,-0.0030853170544513486
216,314.327,-0.03357178673176505,-0.178750979185995,-0.0063181446121921515,0.13269464506136971,0.17032859401413722,-0.041509205492002724,0.7475765666271967,0.8124835419965499,-0.1284349045887868
217,314.334,-0.032498019829925576,-0.17740253384460805,-0.0066508718207834855,0.17409589832111896,0.21494150352471655,-0.053555711248310524,0.4586385529882734,0.4873023761755198,-0.22253701625207675
218,314.341,-0.031202790195963295,-0.1758150883944848,-0.00708549337995281,0.19596971138212518,0.23861433936731893,-0.07062187708569331,0.17864949895288282,0.20239975284874928,-0.2746814408261187
219,314.348,-0.029816743262158153,-0.17412182222459283,-0.007646781226807773,0.2000436982762042,0.24517599488718186,-0.08974607915846741,-0.059954913600054276,-0.011227566632304554,-0.2824973852841648
220,314.354,-0.02864260932771195,-0.17266398655576462,-0.008232306859186406,0.1913342798743687,0.2407692280578378,-0.10542913163532758,-0.2360829247333351,-0.13856081945824944,-0.250578044039606
221,314.361,-0.027373086932589472,-0.17101661959254477,-0.009023009409446996,0.1713864044460805,0.22990704714749693,-0.12048588272467921,-0.34509341780023606,-0.17790609432935073,-0.18809661883393614
222,314.368,-0.026262719873010217,-0.16944533526776617,-0.009901745855428227,0.1458613268620512,0.21903133136034986,-0.1305816732697789,-0.39857330934078017,-0.13895515469596253,-0.10604170407063765
223,314.375,-0.025339681238913978,-0.16793387929780942,-0.010830423311453657,0.11786399716525678,0.21281323148413026,-0.13475474273729737,-0.41712186242748517,-0.04220762409525599,-0.015539627183897219
224,314.381,-0.024706360817548643,-0.16665337627792873,-0.011633894620857404,0.09324280995751334,0.21402110847810585,-0.13306902706521032,-0.4197655968598059,0.08326401589678059,0.07283801389410509
225,314.388,-0.024153932943934434,-0.1651205868814045,-0.012538580892643663,0.06459372536071922,0.2239187190999363,-0.12541276487353606,-0.41491829029180344,0.2051003846979581,0.15022526289602614
226,314.395,-0.02379927414120616,-0.1634932778101897,-0.013373080642692456,0.03673736113300098,0.24102672981824097,-0.11301573514023446,-0.3966698879254075,0.29333721248041256,0.21095908601277527
227,314.402,-0.023631626749664326,-0.16173194070079489,-0.014108437183996183,0.011161893593203149,0.26221244429420765,-0.09708613380353752,-0.3484649379261337,0.32390325993813035,0.25314584968131415
228,314.408,-0.02361770132294504,-0.1601052626009494,-0.014644093008262873,-0.006520084686796573,0.28001358898503187,-0.08146580761784004,-0.25255505972563974,0.28116726841896195,0.27779747910146385
229,314.415,-0.023705670209430183,-0.15809204555235265,-0.015146497644325572,-0.018613882880368852,0.29519128204219663,-0.06207837411425686,-0.09979471440178943,0.1610310083233921,0.28705052865913977
230,314.422,-0.023835320818139435,-0.15600964028394457,-0.015512623152353952,-0.01842914817939084,0.29978165178825555,-0.042528913893776894,0.10517691353569736,-0.027291738220069105,0.28251808682018137
231,314.429,-0.02391030964280004,-0.1539460031953818,-0.015744574372559342,-0.0029962302952259885,0.28982894494833483,-0.023742863308253866,0.3444572744687732,-0.26267787685874927,0.2648087806090531
232,314.435,-0.023845683748863998,-0.15227572941531145,-0.01584296730923688,0.024538194940470808,0.2669289817391248,-0.009054782250768471,0.5914527197890458,-0.5157042485051839,0.23444703245029141
233,314.442,-0.02350450493025385,-0.15055944441471197,-0.015854742890748792,0.07294146751950212,0.22343816128894492,0.005690330390223847,0.8187644747821808,-0.7513898866013533,0.19514812246956348
234,314.449,-0.02277531252942784,-0.14919718579504393,-0.01577262920785514,0.13539921843063682,0.16577858718736216,0.017770721865089042,1.0009264175085482,-0.9285073289627664,0.1568110502741961
235,314.456,-0.021575909917572314,-0.14826809281491224,-0.015613883676644218,0.20728724209926835,0.09967654999293092,0.027585144195141596,1.093513104028373,-0.997358929265331,0.1291296803246626
236,314.462,-0.02014579030583743,-0.14783820701655837,-0.015427197531712969,0.26941929514793383,0.0436187161256999,0.03464357078223419,1.018388957292515,-0.9080771393715783,0.11079005397555775
237,314.469,-0.01805038931040743,-0.14771918325413647,-0.01516055146050509,0.3292667035459242,-0.009611926862323684,0.04154102099139077,0.7252502612245868,-0.6427842801166711,0.09016542620958352
238,314.476,-0.015624804623882292,-0.14789308375992613,-0.01485243028834585,0.36375749260361967,-0.04007393193468941,0.04649359962547174,0.27963021878994726,-0.24471858994290094,0.0541267089108975
239,314.483,-0.013064758236416667,-0.14817880913397696,-0.014521097106067546,0.3676843323860366,-0.04156188922263175,0.04817302388254756,-0.16522272759296439,0.20136732792197556,-0.005197104813543222
240,314.489,-0.010916375425843875,-0.14835610345872324,-0.014240082865907298,0.34844327114159235,-0.01753621902640249,0.045498389504641676,-0.48879134260547796,0.615278186307048,-0.08571516315150954
241,314.496,-0.008615026043154124,-0.14829196356653937,-0.013952844951535568,0.3090851239121525,0.035861902507497115,0.03656958603007972,-0.6578983957546211,0.9404626785685049,-0.17442328443414712
242,314.503,-0.006613304695942734,-0.14779089162020118,-0.013748131064378333,0.2628352610049788,0.10730151073188439,0.021920096014802774,-0.6895797486573164,1.1409123715785523,-0.25238592929229586
243,314.51,-0.004929984468784244,-0.14675819185621317,-0.013661251393706645,0.21811337532567465,0.18775556469305021,0.0029026670342332216,-0.6133811628312338,1.2030962919626846,-0.301682089582825
244,314.516,-0.003716393095822044,-0.14542483427212177,-0.013697848320980378,0.18641708232646062,0.2566969633352896,-0.015101642792086086,-0.46399296591686706,1.140259106054993,-0.3102941315267738
245,314.523,-0.002500504367799768,-0.14337232357765586,-0.013873880937903841,0.16097969710822713,0.3297346636545546,-0.03519339061458171,-0.27711886616254006,0.9876759560628513,-0.2750738970917443
246,314.53,-0.001416874168315288,-0.14085064530974356,-0.014177573462457448,0.14862893131820287,0.3907448414685784,-0.051575902115663,-0.08271759437672169,0.7898402574824944,-0.20222646253893256
247,314.537,-0.000374950892204014,-0.13795005115714723,-0.01457545014145895,0.14906343328480556,0.4379963449869245,-0.06210314902754241,0.09537670008858593,0.5868204346662697,-0.10448223329128442
248,314.543,0.0005488045564685085,-0.1352344756499101,-0.014957108960925433,0.158855049604565,0.46719549075446304,-0.06511645746067772,0.23744563032709096,0.4056743101378206,0.0020582511594003992
249,314.55,0.001728760079785769,-0.13188434043244482,-0.015400692023105346,0.1782750999144113,0.4899859999492159,-0.06162156030492107,0.3283526598952847,0.25832145351633323,0.09976470005239828
250,314.557,0.003059257232880308,-0.12840607775435056,-0.015799402821610117,0.20186694382661402,0.5038033366484365,-0.052295810696361036,0.3589897895704459,0.1442431822653835,0.17193867349087139
251,314.564,0.004554838316435517,-0.12485545256214838,-0.016120050533121322,0.22544193718885466,0.5106610039800351,-0.03931782116391809,0.32786172335260083,0.05555323376991015,0.20617179331142746
252,314.57,0.005957674779171845,-0.12178825541403127,-0.016320376142155462,0.24217021705878528,0.5117380453971407,-0.02745738184777581,0.2407415499367567,-0.018944013934025554,0.1969709488141715
253,314.577,0.007694726797357868,-0.11821938754524287,-0.016471267152697127,0.2541303595654383,0.5079384885416712,-0.01565433544981228,0.10771419930758118,-0.09175512114171437,0.14690784474370136
254,314.584,0.009479510768174534,-0.11469579801604485,-0.016555242724121674,0.25580791781038764,0.49880137694276083,-0.008338684957183398,-0.05883896100505438,-0.1744523313494565,0.06623179570796461
255,314.591,0.011233707323253718,-0.11125809742262464,-0.01660913796026155,0.2453910979261639,0.4833987926051652,-0.0070599539399129625,-0.24465247109798063,-0.27429809638754177,-0.02897628855517918
256,314.597,0.012646128968320567,-0.10841647018254376,-0.01666463692715314,0.2254161170983315,0.4638102874262455,-0.011439701690703425,-0.43430792237400906,-0.39152578091380463,-0.119893704453342
257,314.604,0.01409840814193854,-0.10527915644561492,-0.016781822086265923,0.18952078964936442,0.4325650659813531,-0.02204177234149634,-0.611493431049912,-0.5187959015267581,-0.18899496222503703
258,314.611,0.015260418369126925,-0.10239076628514396,-0.016985728142488613,0.14248213240422267,0.3926892655811881,-0.03621710086494471,-0.7589660383657582,-0.6429755320015536,-0.2239996754789187
259,314.618,0.01606322630282602,-0.09980909651448289,-0.01729261905923362,0.08689156293821225,0.34493066889287577,-0.05146601820499445,-0.8606512465807014,-0.7484591923444835,-0.22027370286387762
260,314.624,0.016428712872511363,-0.0978780182968792,-0.017636844839489532,0.034937293622987184,0.29876207030527935,-0.0632759085464281,-0.9053024452160894,-0.8208364246560877,-0.1811508522892502
261,314.631,0.016457703626953372,-0.09598741045904823,-0.018115531174227505,-0.026654220925209485,0.24141159765042736,-0.07349161566543373,-0.8891508681304023,-0.8500551978734265,-0.11648120989249904
262,314.638,0.01606617889656273,-0.094499676320952,-0.018648753252145878,-0.08520998775775102,0.18365529894818905,-0.07885754945399281,-0.816856697654031,-0.8326600646473269,-0.0398539238776687
263,314.645,0.015287381584713768,-0.09340692093947345,-0.019201365202118497,-0.13730352991322237,0.1285605243311767,-0.07903157910949965,-0.7008755745558363,-0.7725123618467351,0.034783613555978685
264,314.651,0.01435235866423597,-0.09276369750127496,-0.019663996744245547,-0.17437077691122238,0.08584728840062941,-0.07517893493211376,-0.5590601832487493,-0.6793336110506817,0.09616984412724289
265,314.658,0.01301525402706289,-0.09231231511960024,-0.020162139737258555,-0.20765911942367002,0.04311910636348256,-0.06714763450007272,-0.41078731855356587,-0.5655412453584553,0.1378200776397013
266,314.665,0.011479519762021464,-0.09213166894928775,-0.020596533821434827,-0.23112209915928145,0.008494085154334398,-0.05696496097877282,-0.27280070547953333,-0.4432500546886241,0.15884955896381683
267,314.672,0.009810075293120975,-0.09216419555237644,-0.020956524315922053,-0.2458620348119461,-0.017787400322526722,-0.04588946601750425,-0.15664361918511832,-0.32245442650795003,0.16383220614340713
268,314.678,0.008315150460445632,-0.09231774578347354,-0.021203056541442153,-0.25244624274884325,-0.03339601004341671,-0.03628794248958163,-0.0671571669116668,-0.20809065330909032,0.16252876754851753
269,314.685,0.006540212174749424,-0.09258772424568427,-0.021417295017986757,-0.25467898173542514,-0.0437406934453076,-0.024923050808833135,0.0021068770841285874,-0.0932991004916032,0.16858449832545208
270,314.692,0.0047666488358337495,-0.0928998166187848,-0.02154816635994854,-0.25205340081154853,-0.045428556011921445,-0.012468761180221303,0.07438876396046139,0.04412364836436198,0.19426810325766994
271,314.699,0.0030330298005060066,-0.093185177205093,-0.021583162228537515,-0.24326632356745262,-0.036103040076079125,0.002469941583378158,0.18162052548204202,0.2275729171829425,0.24096725128203492
272,314.705,0.00161926305087625,-0.0933415015868091,-0.021521235074063443,-0.2279892596446807,-0.016005087162860674,0.018172443241410065,0.33765513347875536,0.4555673639294624,0.29276926622073773
273,314.712,0.00012625696358782037,-0.09331545573842343,-0.02132014444216955,-0.19858390815170865,0.023446758130191318,0.03928202301394641,0.519062399826299,0.6938522439903472,0.32225304072757255
274,314.719,-0.0011198381206833478,-0.09296042738529102,-0.02096973086374491,-0.15744325878265641,0.07798991419328243,0.06083614225016456,0.6795600908603511,0.8952489144233571,0.3057208118900096
275,314.726,-0.0020464840316086817,-0.09218408114467785,-0.02047887600182738,-0.1073127157672498,0.1438232974103218,0.07940810401188732,0.7809806942299643,1.0227901776211032,0.23536863140202724
276,314.732,-0.002550153174800704,-0.09113746781930496,-0.019970930427846454,-0.06057699862928936,0.20504781104564465,0.08990708731427866,0.8075915887867398,1.058264128556525,0.12149748503736846
277,314.739,-0.0027857355965408906,-0.08945476166783771,-0.019328558943185463,-0.006732264725548075,0.27572537509141365,0.09362762259022062,0.7611612153713733,1.0009089557803403,-0.013100623841299062
278,314.746,-0.0026629043804879855,-0.08730062162633069,-0.018691785555550094,0.04182689788349583,0.339743208195868,0.08830763101975452,0.6535977960868633,0.8642345395419618,-0.14189599493888144
279,314.753,-0.0022310517838218464,-0.08473781357713138,-0.018119822888574454,0.08155955830674146,0.3924876630034116,0.0751102738303116,0.5040032901503108,0.6724619093693348,-0.24260569347615124
280,314.759,-0.0016675290244624955,-0.08228333266702258,-0.017717217521381966,0.10628136147881188,0.42567264036228286,0.059091515233209976,0.3363041601326566,0.45551340529683015,-0.30188056829605225
281,314.766,-0.0008621820139912813,-0.07921971814604174,-0.017377813082785222,0.12381778436994201,0.449645794203045,0.037881181508647686,0.1746151181447687,0.24293841320664997,-0.3160771797494689
282,314.773,3.010143726884097e-05,-0.07603594288005877,-0.017185375595225906,0.13112034456133928,0.46000428179144076,0.01710095779397493,0.03814313966693637,0.05885352210221423,-0.28934942114039097
283,314.78,0.0009451447668063077,-0.07281854979762786,-0.017128181391949587,0.13032060673701598,0.45925088462420005,-0.0007597568577623164,-0.061443300398371085,-0.08080355942371947,-0.23101801617057433
284,314.786,0.001711079063462727,-0.07008509613478432,-0.01716666427633017,0.12499082548057133,0.45190033631929616,-0.012067871269037264,-0.11971884489484648,-0.16904554993468512,-0.15335090394047116
285,314.793,0.0025550577680991528,-0.06696698014651369,-0.01727792576252466,0.11614594727252088,0.4389899460431071,-0.019721124786509055,-0.13797446112108966,-0.20709542950797682,-0.06962471588212224
286,314.8,0.003336860361358222,-0.06394326039386793,-0.01742341969577821,0.10722622222991073,0.4249299832836371,-0.021848570428760955,-0.1218994886288624,-0.20253805562594207,0.0076421212069235555
287,314.807,0.004063168243850124,-0.06101320861736783,-0.017567280337227455,0.10029031562477009,0.41222766714436326,-0.019254469985279847,-0.08017640899849614,-0.16754073607632955,0.06793634394476296
288,314.813,0.004655784909766139,-0.058564937041589035,-0.01766763097414265,0.09724857301482978,0.4038628581190696,-0.014195742319942209,-0.02321406617072087,-0.11678364331020887,0.10401254330220412
289,314.82,0.005338207679834036,-0.055759362148149694,-0.017740891246141588,0.09772936129014424,0.39772996857731174,-0.006735763965454497,0.03722171186636387,-0.0618965537791843,0.11333205317008418
290,314.827,0.006037887087385183,-0.0529833628371985,-0.017762663982792536,0.10217904086718355,0.3954126916938919,0.0005149820651880075,0.09241858548393624,-0.005616726448828718,0.09791661207637971
291,314.834,0.006781465622440912,-0.05020970051720599,-0.017739800237989226,0.11027196914858711,0.39706225687483016,0.0060175164500393865,0.14336684820203296,0.05367639385926778,0.06239834577211952
292,314.84,0.007472819841179913,-0.047812796936524044,-0.01769705261137652,0.12017943709882978,0.4019056033562395,0.008231692420928863,0.19339334174693792,0.11095157054692928,0.012862692091638947
293,314.847,0.008365311475273762,-0.04496754934330638,-0.01764301779438641,0.13481817264208734,0.4110222804196549,0.0072068267190913025,0.23310254313721412,0.15466052688284407,-0.04272189701415374
294,314.854,0.00936651097785275,-0.04205038058620756,-0.017609073653385352,0.15123882809456188,0.4224545073222688,0.0024914992812039675,0.24530913093709286,0.17841453377514216,-0.0946579840689878
295,314.861,0.010481542170969312,-0.0390492878420888,-0.017619005767300595,0.1673415127956568,0.4350005624253354,-0.005329246114128116,0.22383854512480406,0.18711163186778257,-0.13319746956492376
296,314.867,0.011521052435931647,-0.036405884143687055,-0.017675975649575668,0.17916190885680036,0.4461340037043724,-0.013660714644139038,0.1779431051188959,0.19132005407946762,-0.1499936483659749
297,314.874,0.012811341045204374,-0.03323584971613329,-0.017806259391922707,0.18949197950657237,0.4595901184531992,-0.023563211740702725,0.12302090981745963,0.20072047086511255,-0.13851311844332906
298,314.881,0.014161384250313947,-0.029967858113683445,-0.01799932032146743,0.196234650527591,0.47412176796795735,-0.03159705384391124,0.07342511758139922,0.22265548946692934,-0.09555085427687364
299,314.888,0.015548250566806174,-0.026590997698531564,-0.018234893747557976,0.2000128684699047,0.4906954935033188,-0.03570963932476818,0.03665231361684737,0.26021584304285017,-0.02426829121125361
300,314.894,0.016752181092487252,-0.023596500357452338,-0.018445561823172963,0.20129730675520546,0.507470286851657,-0.034513052546559064,0.007006437852635549,0.3099684485095826,0.06494092247688811
301,314.901,0.018158180348563594,-0.019963259623266415,-0.018660411967587075,0.20041676640917644,0.530598494343579,-0.02687270300028629,-0.03266075976767419,0.3638660702508065,0.15765874338446442
302,314.908,0.019545055520602594,-0.016155783614675342,-0.01880072404830126,0.19583328274454082,0.5572517938245216,-0.01321646291802373,-0.10087788608218569,0.4126711186078803,0.24021238290674182
303,314.915,0.02087879361299644,-0.012151650545969454,-0.018827999028754077,0.18523474365342876,0.5867862258049146,0.005423611360081555,-0.20790788949151723,0.44780714229151886,0.3028615014499219
304,314.921,0.02194097612458116,-0.008550566020982656,-0.018738689230516296,0.16882609354314107,0.6135752825296584,0.024346321385985484,-0.34983099552918495,0.46276737346631847,0.3403316387829082
305,314.928,0.023019845091007126,-0.004145383213757766,-0.018485244404137763,0.1394221825783436,0.6450483766765536,0.048066486150686843,-0.5068445683491587,0.4541933229378753,0.3507494065044196
306,314.935,0.023856983065888623,0.00047514754742395814,-0.018066460000873547,0.09976009595905604,0.675103269374424,0.07158620049614633,-0.6487003678278008,0.42144843029951157,0.33449156614293657
307,314.942,0.024387662111327084,0.005295393507449144,-0.017489887046286845,0.05186248845182463,0.7021098620603594,0.09314892938565067,-0.7467844018276932,0.36538186738962647,0.2937331265616181
308,314.948,0.02456362804583144,0.009565714609818376,-0.016884537269648548,0.006792823049902974,0.7213305054027401,0.10863432949472937,-0.7851578823071693,0.2879381872831723,0.2326239919634463
309,314.955,0.024425129282274857,0.014672747532382395,-0.016077250055857546,-0.04636389835175575,0.7378217581859372,0.12201916015967762,-0.7635498503209306,0.1925303222977248,0.15733968909375706
310,314.962,0.02392558745388898,0.019870738530037454,-0.01519514170861581,-0.09636233832982152,0.7473185268573038,0.13001179619492365,-0.6931421459419564,0.08415564870474466,0.07552375517956199
311,314.969,0.02309690200068069,0.025108364451922216,-0.014276552804788826,-0.14040493401523488,0.7491460222515587,0.1324421763268847,-0.5900278221156336,-0.03091202920009269,-0.004715240200751759
312,314.975,0.022160933107729368,0.029587651587368403,-0.013489020345769384,-0.17158469696704926,0.7439496895567075,0.130068643345009,-0.46978917117176117,-0.14571412736463232,-0.07596242858741263
313,314.982,0.020862012435269507,0.03474733938573559,-0.012603585382195108,-0.19953549516407412,0.7302468242614362,0.12291277481888942,-0.34455031703281447,-0.25351541280196166,-0.13252200438451314
314,314.989,0.019397137535331586,0.03978671183545088,-0.011779661027901291,-0.21900019053557396,0.7095738756678802,0.11249418355251606,-0.2225486958569514,-0.34878575437130666,-0.1710210364951966
315,314.996,0.01782428181422593,0.04466042448989385,-0.011035631945703357,-0.23038715835143547,0.6829154541719739,0.10008555421817042,-0.10920775267114997,-0.4279006631074255,-0.19050126387785277
316,315.002,0.016431588352906572,0.048676948624718816,-0.01046889110465546,-0.23384399541946704,0.6559259240966226,0.08882805946355964,-0.008292007458117878,-0.48948805017122826,-0.19214706674667337
317,315.009,0.01480300214145024,0.05314542169722951,-0.00989166376876407,-0.23146635071058105,0.6207806680483781,0.07609403650529106,0.07756408912527502,-0.5344601613039137,-0.17885549516676516
318,315.016,0.013209696081808327,0.057358728249348054,-0.009399080460406606,-0.22376395204392555,0.5830212039846325,0.06464405159674119,0.14684336228051312,-0.5656523443855516,-0.15473694053587964
319,315.023,0.011684931353834254,0.061301394986792594,-0.008980124153927573,-0.21188311309121255,0.5434550067130021,0.055057750254325424,0.19930189782955846,-0.587098879721187,-0.12455754235973328
320,315.029,0.010452044498998418,0.06445706686610025,-0.008668994030212882,-0.1990791718559974,0.5084356197278252,0.048652290984392055,0.23591098442467034,-0.6032290095288403,-0.0931674799453171
321,315.036,0.009117873613914527,0.06786938265993396,-0.008347427084993666,-0.1821125095962704,0.4665117499382494,0.04322397907817557,0.2584084608996723,-0.6182124114761743,-0.06498502462228611
322,315.043,0.007906411673666203,0.07098436301890673,-0.008057901304760256,-0.16401947333157485,0.4234826383390508,0.03949767241702501,0.26872760827445563,-0.635429952172628,-0.043579984432004414
323,315.05,0.006822827277146922,0.07379348003221314,-0.007790420302261393,-0.14557606853085556,0.3791222226050638,0.03692547115402414,0.26861636023397206,-0.6569996232089559,-0.03136045359435019
324,315.056,0.0059959754513602215,0.07594990026250917,-0.0075742305149708354,-0.1300412067326731,0.3396845208303201,0.035137791276500324,0.25942198783444537,-0.6835091735404946,-0.02940375156344993
325,315.063,0.005145923682113724,0.07815979231168847,-0.00733629785115203,-0.11283072733758118,0.2917132075061742,0.032842969814538325,0.24200100851656256,-0.7141229965863835,-0.03745529559799846
326,315.07,0.004411244814390184,0.08002626437619077,-0.007117378882572353,-0.09707752058328047,0.24156452520838795,0.02970530692246769,0.2169647153046477,-0.7469462719420539,-0.05395972502775461
327,315.077,0.0037800332872315323,0.08153384581309449,-0.00692506098906099,-0.08326863003334814,0.18917302819236456,0.02524266265216815,0.1853538440380273,-0.7794668403261069,-0.0760582954057953
328,315.083,0.003309965952463305,0.08252868882871303,-0.006789121343488115,-0.07342048155531276,0.14244131034556853,0.02007055253857374,0.14939004498926026,-0.8089695046225722,-0.09974452253134299
329,315.09,0.002827518146249853,0.08332854411527707,-0.006675069970630661,-0.06442174879240858,0.08608877153156205,0.012515553992368611,0.11278577485808322,-0.8328475659927415,-0.12036846337285992
330,315.097,0.0023997707391810053,0.08372913378283023,-0.00661795583229893,-0.057791796084317684,0.028365419197830692,0.003802771245257122,0.08037623279084187,-0.8489078123530054,-0.13347627455221464
331,315.104,0.002011753812615318,0.08372290856195573,-0.00662367880247946,-0.05307018293437089,-0.030144053733401482,-0.005437905582550025,0.05718678093507513,-0.8557509922392248,-0.1357485248820044
332,315.11,0.0017025563264642788,0.08339122500161565,-0.006679376655472009,-0.04999564578215013,-0.08041713304609543,-0.013128045414877795,0.04731839844850905,-0.8530581428019263,-0.12564348401981398
333,315.117,0.0013646592372970297,0.08262471358102394,-0.006798799637647012,-0.04654637969413777,-0.1385861299799529,-0.02099280663509854,0.053175103060595114,-0.8416809790859445,-0.10349435962171283
334,315.124,0.001054266417347998,0.08145455431898253,-0.006966729908234464,-0.04213728314837937,-0.19574508774592378,-0.026987270675567627,0.07528281786202216,-0.8236309052237563,-0.0711528452404341
335,315.131,0.0007818658531079913,0.07988905325257381,-0.007167964792158467,-0.03569144949219894,-0.2515409312313095,-0.03050841044600195,0.11251492743553947,-0.801966986754761,-0.03143467796241884
336,315.137,0.0005919880964175291,0.07824014652360897,-0.00735269466462411,-0.027601136070986257,-0.2980946450876793,-0.03106821370891847,0.1624791980192644,-0.780418906360201,0.01240666252004568
337,315.144,0.0004449589023668486,0.07596812024048592,-0.007561829199009691,-0.014407205086321017,-0.35105572151844294,-0.0286845104012048,0.22192266877974623,-0.7625887591590653,0.05704193490289743
338,315.151,0.00040524637237465385,0.0733289126663103,-0.007743840067218691,0.0030607679457020625,-0.4030035853883417,-0.023318594801329515,0.28700234003746594,-0.7508992127743127,0.09929266894453408
339,315.158,0.0005036091675909956,0.07032808618297276,-0.007878762724964933,0.025042887830375483,-0.45437540985034264,-0.015230735983283485,0.3534412040199619,-0.7458059956291458,0.13634506719924155
340,315.164,0.0007218466540415389,0.06747020132580875,-0.007943464846509034,0.047702940986814116,-0.4982528758754711,-0.00633663786485137,0.41678624900239597,-0.7456127873849208,0.16597013450823614
341,315.171,0.001162629971145634,0.06380314997998035,-0.007945457850163434,0.07823514961426592,-0.5494760800747497,0.005767208249308811,0.4727619840094594,-0.7467624069763956,0.1866723832629128
342,315.178,0.0018292409188025414,0.059777696807793865,-0.007858909652773773,0.11222512114471436,-0.6006533976919952,0.01896084814771959,0.5175273030828756,-0.7442758933375745,0.19772100281115357
343,315.185,0.0027427970129513153,0.05539575610952243,-0.0076785112117082575,0.14879090575474874,-0.6513296589560919,0.0325815635852481,0.5478076514052449,-0.7321642559215057,0.19911512187446512
344,315.191,0.0037333992888275765,0.05136102064351453,-0.007448536280140698,0.18140985287222328,-0.6935821630528632,0.04407674693763193,0.560927989465247,-0.7040211929650463,0.19161237264669634
345,315.198,0.005137302948409661,0.0463427927545066,-0.007095745907602417,0.21970547843665714,-0.740197233805521,0.056720502358947864,0.5548054469392483,-0.6540971903367943,0.1767602672399957
346,315.205,0.006805327650441833,0.041013323866363444,-0.006658652745193515,0.2568730078579084,-0.7825081628057212,0.06816325832922078,0.5280611915509508,-0.5786211035955282,0.1566215551608313
347,315.212,0.0087245537563514,0.03540898112846315,-0.006146699297906547,0.2914773081158616,-0.8187326194503624,0.07810915518123691,0.48012640878522006,-0.4767693463139051,0.13314965262773285
348,315.218,0.010552073369951244,0.030423529507533884,-0.005656795237858707,0.3176958964145112,-0.843084587518124,0.08519219816726348,0.4110575768614044,-0.35096720890271865,0.10760680637348018
349,315.225,0.012863929331742789,0.024454971242971288,-0.0050378660989594,0.3428343783826013,-0.8622177737842565,0.09164469866098346,0.32134578406706554,-0.2064733694255087,0.08038517556050971
350,315.232,0.01532786893170359,0.01838858878338953,-0.004380534947043763,0.3611483644628388,-0.8710343575235782,0.09616420188620715,0.21222760251170494,-0.05039558434756247,0.05128941624987166
351,315.239,0.017891743714124348,0.012298426080773792,-0.0036988162957396547,0.37138728766280255,-0.8690121289509484,0.09861255563069476,0.0860808543601859,0.1093127061153643,0.020042755418063385
352,315.245,0.020122921255240147,0.007117355681103275,-0.0031065497169298637,0.3723385593722456,-0.8580113375976441,0.09880963730495954,-0.05374661485813134,0.26461013716790716,-0.013343842800474766
353,315.252,0.022698431532539518,0.001192127761786752,-0.002422316714854817,0.3635215198556206,-0.8349109250630097,0.09668550614491409,-0.20313561787224485,0.4084145824900489,-0.04854218526776544
354,315.259,0.025175771936018002,-0.004538796814686617,-0.0017615918951207254,0.344290023994869,-0.8024960967853542,0.09209301377897722,-0.35716918581381957,0.5359833013841531,-0.0852589268328015
355,315.266,0.02748155467284636,-0.01001432497988822,-0.0011420343631638212,0.31450504366990534,-0.7619405218425577,0.08492342392286897,-0.5106087382025332,0.6455931927810302,-0.12362527364349671
356,315.272,0.029265402939097813,-0.01446387328645947,-0.0006578827187159478,0.28011104508337326,-0.7212422470214949,0.07646045756051384,-0.6584618613971851,0.737763163067776,-0.16403552667720064
357,315.279,0.03105149416516996,-0.019326225490756757,-0.00016717302266880678,0.230200733794018,-0.6680012399195945,0.0637423127385691,-0.795662527645515,0.8134002122762841,-0.20650442972077251
358,315.286,0.03245725440860994,-0.023799739991811564,0.00022417351901714804,0.17144505004569002,-0.610145760380865,0.04807098488590951,-0.9161695672896565,0.8722046590155178,-0.25007577285746047
359,315.293,0.033425670979467755,-0.027856357570557926,0.0004954869997955128,0.10524539877063059,-0.5488878335458391,0.029447152479282174,-1.0125406526707679,0.9125296600429672,-0.2925249086513416
360,315.299,0.03387274586079699,-0.030986839733122145,0.0006171863910375184,0.04377956167314986,-0.49460622064713744,0.011119311268243635,-1.076716368424427,0.9325316979456356,-0.3304483190776199
361,315.306,0.03391748406139577,-0.03422515247140076,0.0006120986973603995,-0.030997218644937936,-0.43062599028894766,-0.012572938033133689,-1.1018863528495297,0.9315162508047111,-0.35981941619415697
362,315.313,0.03343784965689635,-0.03701823501819523,0.0004355846156219191,-0.10604118264051265,-0.36739759450890047,-0.03785965674925325,-1.0845006977894633,0.9106271862653827,-0.3769027851721604
363,315.32,0.03244210006293138,-0.03937578524688793,7.973330004117113e-05,-0.17845870134927683,-0.3061881851171052,-0.06381214770231637,-1.0253655288078651,0.8726935892652607,-0.3792165231701983
364,315.326,0.03119881692673123,-0.04106338117537977,-0.000368927253157073,-0.23596901071545998,-0.2563437910441548,-0.0857413700297176,-0.9294409669852464,0.8215443028016004,-0.36616959500119645
365,315.333,0.029338699850332918,-0.0426676467683774,-0.0010538451882241013,-0.2954930111122491,-0.20201780695484123,-0.10994946856072209,-0.8047758406109577,0.7612296046788118,-0.33912727806779813
366,315.34,0.027094151945873814,-0.04390678449664443,-0.0019003811469646382,-0.3458063901665304,-0.15202154398121914,-0.1319179482240797,-0.6610918265814625,0.6953989651179909,-0.30091886157127556
367,315.347,0.02453302545070695,-0.04481208512568655,-0.0028905999451903468,-0.38594403702347835,-0.1066357786020585,-0.15100170841163482,-0.5083084377266263,0.626903914753706,-0.2550817003664033
368,315.353,0.022141125670161643,-0.04534734728854656,-0.0038372387621862995,-0.4113558898211509,-0.0717849423504234,-0.16454456391884276,-0.35545417225575615,0.5576948439616789,-0.2052472773219775
369,315.36,0.019193665708310294,-0.0457241047213241,-0.005032311336139134,-0.4307755278500606,-0.03586003844308377,-0.1769047429245802,-0.21033210626503854,0.488968212151526,-0.1548634348909044
370,315.367,0.016143385879005184,-0.045865763617757696,-0.006302119272885428,-0.4407329948079194,-0.004613931966487142,-0.18589752471695878,-0.07977619365248545,0.42137925546554417,-0.10713900492208454
371,315.374,0.013052291204771175,-0.04580475900654334,-0.007624081718344126,-0.44243691211545216,0.02204382088486223,-0.19180603112811365,0.030132990679238254,0.3552876812218881,-0.06500384599032566
372,315.38,0.010410435271708585,-0.045615447918512145,-0.008783384104146693,-0.4381817322428821,0.041059875125834214,-0.19462809747455806,0.11450287282801021,0.29107827932737673,-0.03091971426241735
373,315.387,0.007377408261137121,-0.04526550175224484,-0.010150272479370623,-0.4283974136340599,0.05892474380761023,-0.1959114383034288,0.17056079341057567,0.2294101846016408,-0.00647009859401428
374,315.394,0.0044229507106397685,-0.044804898923541614,-0.011521450101658368,-0.41573331507886613,0.07267606439321828,-0.19585359663564722,0.19840453857434567,0.17123108828383463,0.008155301063229117
375,315.401,0.0015608338747052533,-0.044261469448876614,-0.012889707339480463,-0.40201435233041105,0.08258949979667074,-0.1950770427418146,0.2012939968493648,0.11759436335052655,0.01446940167367723
376,315.407,-0.0008171156070481802,-0.04374942732589975,-0.014057524598859951,-0.3906354749244581,0.08809120786308419,-0.19419537705317758,0.1854801956970686,0.06941166713012716,0.015498891564114357
377,315.414,-0.0035101220953753292,-0.04312117608082474,-0.015413209837327657,-0.3787949503113204,0.09140914787250574,-0.19314326250874744,0.1594905162507069,0.027255682049669584,0.015154201546301016
378,315.421,-0.006126544624744407,-0.04247908581020905,-0.016761285912045336,-0.368754343793596,0.0920452151604172,-0.1920213302674572,0.1330400338706676,-0.008724021306019937,0.017533012633855993
379,315.428,-0.008677918508221194,-0.04184049838073588,-0.018100149029996765,-0.3602096229135367,0.09040833611750337,-0.19051098914696368,0.11590826375108265,-0.038966038658032096,0.02647039672881251
380,315.434,-0.010818623405785583,-0.041307241467561685,-0.019236872713023608,-0.3533586762711858,0.08734396827304441,-0.1883969051935082,0.11695911509620344,-0.06519348045890495,0.04538845936867809
381,315.441,-0.01326083685193945,-0.04071468414554583,-0.02054092919244371,-0.3444165940636579,0.08195812373273859,-0.1841906603578515,0.14356620504280165,-0.09172174806592871,0.07715942790862455
382,315.448,-0.015630281519765345,-0.040167165060620375,-0.021806163908747584,-0.33256759674325737,0.07447590053156726,-0.1773049728715686,0.20165135710393606,-0.12627094642974443,0.12345334829871557
383,315.455,-0.017898524593596483,-0.03968243405317747,-0.023010411399480537,-0.3155018529223192,0.06401867302344866,-0.16676573876617187,0.29555480463109607,-0.17839775165081836,0.18360459140514973
384,315.461,-0.019727811351314115,-0.03933659283167215,-0.023972394759238833,-0.2942603996473125,0.05126173414444049,-0.1538953811517284,0.4264536717567052,-0.25521749511021485,0.2538658194684922
385,315.468,-0.021665525323903492,-0.03905130795064207,-0.024979809082033854,-0.25937216394925733,0.03024823186409577,-0.133937282503786,0.5900063163426315,-0.3570056182240956,0.32760837400308457
386,315.475,-0.02331705668728001,-0.03893961497842413,-0.02583040774497931,-0.21249393987226745,0.0016640459124368685,-0.10909090690902805,0.7757789729969314,-0.4757874631948098,0.3962845410739353
387,315.482,-0.02459489398550003,-0.03905685967972827,-0.026492262912819833,-0.15260243104747712,-0.0351625319993111,-0.08001056961670033,0.9691451003832315,-0.5971456386645452,0.4509637850926946
388,315.488,-0.025323147966374335,-0.039382596128843095,-0.02688977722343933,-0.09014889591176592,-0.07341628437280523,-0.05249420059042181,1.153684310815791,-0.7031200780913934,0.484332468857697
389,315.495,-0.02565784283738106,-0.04007410159893001,-0.027139870320213498,-0.005478210090087365,-0.12415670708045906,-0.018960969916432577,1.3131748633631892,-0.7751893987174941,0.4926497880500506
390,315.502,-0.02536618710999192,-0.04113214190243788,-0.02715613505541971,0.08880841791549651,-0.1781405224930016,0.014313902714661403,1.433842372186638,-0.7976155102693079,0.4768052721407441
391,315.509,-0.024391418063199895,-0.04256625417733786,-0.026945576018783425,0.18969702402488367,-0.2316058417638421,0.0458458220385199,1.505521837939437,-0.7600831438015025,0.4418692810257579
392,315.515,-0.022986186248863855,-0.04408104112694526,-0.026596614367791364,0.2787135807559975,-0.27332314144099806,0.0704747282927134,1.5201990328143256,-0.6579104176203212,0.3952805528219961
393,315.522,-0.020675884688420243,-0.04613225377404113,-0.026014404158769874,0.381372579370277,-0.31273761487168705,0.09587104571330754,1.4707451184709506,-0.4904203704720391,0.3446347792835794
394,315.529,-0.01766704531172944,-0.048411576572778815,-0.025266310606116123,0.4782958139693384,-0.3384974704814718,0.11786996933046864,1.353088988239209,-0.26008655550650756,0.2962983373011692
395,315.536,-0.014015955398486098,-0.05080918141026665,-0.024374984762517666,0.5648727326708711,-0.3465324830859902,0.13679455741176574,1.169307802319701,0.02598848052640467,0.2550647852820799
396,315.542,-0.010441114725191339,-0.052854718452217314,-0.023511591183252235,0.626740825099648,-0.33531319756743594,0.1510033023447302,0.9336220948782072,0.35536109751866307,0.22789813386058447
397,315.549,-0.0058616333225090566,-0.05507233311826564,-0.022399562808612865,0.6816824328086404,-0.2982909927316338,0.16671909040914867,0.6670878522044388,0.7232715456593465,0.2299774058251613
398,315.556,-0.0009686206014468731,-0.05693387716277106,-0.02117212770356003,0.716321201779556,-0.23357873426953463,0.18397665389141155,0.3421039854302544,1.162103858117039,0.2728173735847449
399,315.563,0.004068318860612874,-0.05822091458947877,-0.019810742243257583,0.7228043588079148,-0.13414624478954715,0.20499062048043726,-0.15321883305612619,1.7348367595809062,0.33941926726641797
400,315.569,0.008312466539415739,-0.058657016237321453,-0.01851653245896883,0.691911534119618,-0.011220971157319987,0.22641264094708735,-0.8968449735835625,2.443459723983485,0.38872678554970885
401,315.576,0.012835633277524364,-0.05806413959082631,-0.016838640540541253,0.6004218196247797,0.18061429872724016,0.2529850500318784,-1.7686848890176297,3.1456127023634495,0.3854536819252631
402,315.583,0.016527819391159014,-0.05598744291415939,-0.014983452143457338,0.4544884985557947,0.4127276088914559,0.2770687777060043,-2.4830457826295462,3.6169503154152993,0.3162196774528475
403,315.59,0.019075983514922634,-0.05221969009240483,-0.012983111379608229,0.2735583939534884,0.6637731973321046,0.2944571548265452,-2.7883073910884706,3.6971998769106955,0.1903863244706204
404,315.596,0.020241524335031506,-0.047614374964356755,-0.011196506680069414,0.11495521274761461,0.871331845343259,0.3010777450168826,-2.6027004524026474,3.3578307404140557,0.034651114080627786
405,315.603,0.02049269757801402,-0.040790151288993215,-0.00909912120381589,-0.043191429038376555,1.0784463476163602,0.29817524819798175,-2.0048622520851427,2.6763982856026343,-0.11921463020485532
406,315.61,0.0198093360260124,-0.03270458563647752,-0.007055702405155009,-0.15205472867623182,1.2317152673864744,0.2856586942761382,-1.166842651883883,1.789053212542712,-0.24545202592963677
407,315.617,0.018569861759847615,-0.02376587430911597,-0.005124987933275689,-0.20208077594202525,1.3222022547150005,0.26597401197470205,-0.2906536757759249,0.847262445810447,-0.328056250929785
408,315.623,0.01737151671541208,-0.015759413987185812,-0.003589835456835387,-0.19736757220503062,1.346617852607592,0.24574348017446968,0.4508580179660635,-0.017363078452367703,-0.3595904582021965
409,315.63,0.016158978911196237,-0.006420792079820898,-0.0019535209816325637,-0.1490718004278195,1.3215598352090479,0.2217749413117172,0.956227167733046,-0.7126959674436387,-0.33872690407559725
410,315.637,0.01537463843667703,0.00260157595622227,-0.0004740487311518443,-0.07502547800607952,1.256259603658587,0.20093141596818628,1.2010938461179657,-1.18980988464694,-0.26854397387867796
411,315.644,0.01513990092877974,0.011079837232234324,0.00088143549847648,0.007957618606901737,1.166100760914555,0.1863497924967725,1.2165978401480435,-1.4369453636202296,-0.1562879651307367
412,315.65,0.01538885980063182,0.017819785749784947,0.001984450775706024,0.07502867201084848,1.0805487449462103,0.18132196658146998,1.0631835124464348,-1.4710138942556912,-0.014610554932218507
413,315.657,0.016139185513943617,0.025046985893714593,0.003268476738359394,0.13935010322094002,0.9843655818893553,0.18554259417637348,0.8108052374629365,-1.331258413873013,0.1375774802882769
414,315.664,0.017275357636080714,0.03164858998516188,0.00461712461081218,0.1852705031037131,0.9018070156656649,0.1997853693812899,0.5270740844473493,-1.0740646860826706,0.2773821995472355
415,315.671,0.018668020437631806,0.03774041260059552,0.006094939998205609,0.21263315448202907,0.8387137315998455,0.22244759844510253,0.2701298938529856,-0.7641423051142436,0.38287615469770275
416,315.677,0.01997478018448018,0.04266446120347228,0.007502038395994025,0.2229534277986821,0.8026358026845718,0.24658520081546328,0.08066177359049245,-0.46216599639889616,0.4375739946140904
417,315.684,0.021542020137050012,0.0482014580868171,0.009332714711747965,0.22482941579237908,0.7793633068413872,0.2764651751138604,-0.02600533437553844,-0.21587232725081337,0.43297155496926726
418,315.691,0.023105376713747686,0.05362415139001526,0.011364378481923796,0.2218438918388356,0.7699776369409902,0.3040101877978187,-0.06097715647259857,-0.0575768089538898,0.369545474194247
419,315.698,0.024644482204300436,0.05900668063961022,0.01356763527968628,0.2179005340330646,0.7678878629421859,0.3254917544195845,-0.053911583187826594,-0.0033082318472235075,0.25631457621616566
420,315.704,0.025943599568240668,0.06360919508963063,0.015552834045052769,0.21513858727827775,0.7662836203906251,0.3362411673660852,-0.03996847965298946,-0.051220839465035334,0.10906377916681163
421,315.711,0.027439107904431357,0.06894506577460899,0.017913336270189654,0.2121495087758998,0.7582508610306715,0.3381880398153999,-0.047117572082336044,-0.18281158780036516,-0.05234213913353086
422,315.718,0.0289076938807888,0.0741865202909153,0.02024946803586044,0.20744648446878436,0.7393075721986333,0.3292781789472046,-0.0899038603745631,-0.36909637646075777,-0.20724442037132174
423,315.725,0.030328497006834414,0.07924777055847547,0.02248896915017222,0.198497265829672,0.7067639328175261,0.31057928228427545,-0.1708293779048828,-0.5790543865734766,-0.3375432393993676
424,315.731,0.031479314256194255,0.08336786406626412,0.024284675495722288,0.18510848395874316,0.6666005697851456,0.28798949956856046,-0.2842625536242925,-0.7861200284941653,-0.43029568336634577
425,315.738,0.032690558846099456,0.0878229885193195,0.02619136458327501,0.16096139887106745,0.6062921310869083,0.25677881116039936,-0.4192567080912186,-0.970951192075382,-0.47901988771883824
426,315.745,0.03369950351017447,0.09181566205045294,0.027873177985126348,0.12730850515015946,0.5344717349504045,0.2237393036539253,-0.561211901646166,-1.1215180182914155,-0.48357786865640423
427,315.752,0.03443996923190573,0.09527424411868393,0.02932735957424135,0.08425312963004913,0.4536945702577423,0.1917411503786358,-0.6931956547446375,-1.2319043952924984,-0.448680293633373
428,315.758,0.03481388195649024,0.09777291530287058,0.03040451992200868,0.04038444523203912,0.3791958244750556,0.1673122988788281,-0.7979246360177926,-1.3003482354236218,-0.3816695709966654
429,315.765,0.034897398462604146,0.10011171766593394,0.03149497579684982,-0.016522586342368646,0.28903342211399774,0.14424652250413048,-0.8600474419487505,-1.3265107213919334,-0.29034603283720906
430,315.772,0.03457440975548157,0.10181868960760157,0.032448181388494104,-0.07575990140687378,0.1986728469335481,0.1280979322511852,-0.8658168604659462,-1.3061219507637711,-0.1801390899529009
431,315.779,0.033844248129428045,0.1029056528408744,0.03331693523220279,-0.13285770603684136,0.1118880768584683,0.12011745166540405,-0.7977133425792695,-1.2223305373807252,-0.052370208351979815
432,315.785,0.032920997758992356,0.10337681501406075,0.034040918979006296,-0.1748924174402529,0.04516598086956472,0.12121046393461178,-0.6310692149441403,-1.045589564066932,0.08952228608163303
433,315.792,0.03157899443522316,0.10347639346732028,0.0349274908668767,-0.20853710363950004,-0.016714994223774003,0.13209578974452185,-0.34916027071817773,-0.7572971095910163,0.22761894854678408
434,315.799,0.03008041600823869,0.10322277022373114,0.03591894603612165,-0.21962816121290052,-0.05574878965878619,0.1511771157538315,0.02602509281360558,-0.37994272066947904,0.3283106942188326
435,315.806,0.028597154824912725,0.10278985902880174,0.037059789223550105,-0.2041607483085014,-0.06794012317809732,0.1747780806540663,0.4246140989414957,0.024751279313652102,0.3592974929433178
436,315.812,0.02747704359180334,0.1024186552330048,0.03816732449346754,-0.16920966272617735,-0.05579447542029065,0.19440034264998285,0.7633921887019965,0.3880858518761928,0.30767379680472273
437,315.819,0.026503039833388885,0.10215393814962556,0.039587192438356886,-0.10907712539203909,-0.0198389769737208,0.21127621303239738,0.9885541897859331,0.659468568456487,0.18400044996812953
438,315.826,0.025988542122596995,0.10219166469537949,0.041090073133185356,-0.037922220548395544,0.03061799004626379,0.21811827120400065,1.0845260988401582,0.8105824980559168,0.01534119710949867
439,315.833,0.025980611400597806,0.10260343616955529,0.042599021617244104,0.03565629997720009,0.0870310025753114,0.21300986709819067,1.0591656242119998,0.8329964590513903,-0.1641732682276055
440,315.839,0.026370504919930832,0.10326426387605678,0.043834314179227264,0.09430820646775337,0.13324489959288494,0.19875432023146447,0.9344443748134537,0.7378388760797262,-0.3203804739369187
441,315.846,0.027232214749978546,0.10435215574008078,0.04513622248605365,0.15189460211713157,0.17758134727089164,0.1732194817186671,0.7433208049177072,0.5538923960082384,-0.42357063541319756
442,315.853,0.02844760673848876,0.10570030264391987,0.04624340370218046,0.19536025174268115,0.2076034823971456,0.14311800860305188,0.5230399845325571,0.32079497360414594,-0.4534282266008065
443,315.86,0.029914879846306103,0.10720165151922936,0.04714213430672123,0.2238606362048321,0.22135333911954533,0.11366216412269689,0.3073115615285506,0.07980364999426952,-0.4047604072149917
444,315.866,0.03129601495177915,0.10852497112961511,0.04776280863335055,0.23651773228834677,0.21975319767777388,0.09322927808804876,0.12290997465944976,-0.1341933223689329,-0.2897644317036381
445,315.873,0.03296511902282911,0.11001133814015418,0.04836447893365291,0.24036914515415678,0.20492309104737375,0.07867652199821629,-0.010700027741294124,-0.29787811109391477,-0.1342264633907864
446,315.88,0.03463619143969567,0.11136180324788132,0.04890264979180793,0.23708011680737762,0.18092408258867615,0.07508658033168147,-0.08512498740591491,-0.40132697521211047,0.029634414219130982
447,315.887,0.03627248946899362,0.11252638392887324,0.04945230759499683,0.2304336058488453,0.1518132548373466,0.08195850629360575,-0.10851944071254242,-0.4468096828226709,0.1705774234309583
448,315.893,0.03763641351229605,0.11335843388695858,0.049982494151019026,0.2242077419207689,0.12553673119240696,0.0947703457146221,-0.10310103886358475,-0.44634355656295377,0.2649039224270922
449,315.9,0.039181951393721326,0.11413324944480988,0.05071382526695173,0.21737450991470847,0.09583914247923202,0.11418140169457132,-0.09598346009683043,-0.4188882347842801,0.3006323202518287
450,315.907,0.040678667426288014,0.11470741105124732,0.05158266286600765,0.21025864224689758,0.06820703078849064,0.1340579123212278,-0.1113355579107985,-0.3861664020684574,0.27846482670289163
451,315.914,0.042117345050386716,0.11509432462663757,0.052579734448668904,0.20079210749529555,0.04233970503721529,0.15081968272464047,-0.16446955542979222,-0.3674716395012022,0.20988514582743042
452,315.92,0.04328480066507423,0.1152827551271886,0.053513148357798204,0.1883597640653521,0.02047046181282331,0.16031828698364048,-0.2581125165956225,-0.3758757565442555,0.112977546289812
453,315.927,0.04452624321474568,0.1153308234631754,0.054649860506867834,0.16633810726909382,-0.006736651530890262,0.16445661275030823,-0.38348292545478074,-0.4167966601669742,0.007591535963114336
454,315.934,0.045581521741749946,0.11517496360408642,0.055791328639665676,0.13517004330333787,-0.03779473678021172,0.16167713947741363,-0.524590793202127,-0.4880728561976287,-0.08857079196046949
455,315.941,0.04638513802073013,0.11478198093899442,0.05689289703811057,0.09443460783555835,-0.0744860246754779,0.15305668865202868,-0.6622258922126885,-0.5809186050058234,-0.1625838786077905
456,315.947,0.0468247362330401,0.11422362460062045,0.05777855266421172,0.052098129600396934,-0.11163275478162166,0.14216185338027787,-0.7768138830064831,-0.6817188265998183,-0.2077374602013777
457,315.954,0.046993798349882716,0.1132672682977252,0.05872190698699027,-0.0037946676453987915,-0.16161190318825652,0.12736795312768837,-0.8516087324273817,-0.7744111145727292,-0.22327910953385072
458,315.961,0.04675965835806927,0.11194173953488737,0.059561196561261555,-0.06310247287268027,-0.21711060047942515,0.11242906809250598,-0.8763092831826993,-0.8425294976249407,-0.2119615554426618
459,315.968,0.046110916151900855,0.1102163105201242,0.06030151288252483,-0.12225244317530717,-0.2758691180239836,0.099089880839708,-0.8470102515232589,-0.8693851592519596,-0.17667231626067803
460,315.974,0.045235597214649766,0.10841065125084719,0.060869958653604055,-0.1695205359097599,-0.3260173050711857,0.0903920428542559,-0.7596577657464799,-0.8351788202054404,-0.11897189746140428
461,315.981,0.04388514982340023,0.10594211381871826,0.0614832563158605,-0.21632157587554707,-0.37927910410800125,0.0848358606474605,-0.6038787838908647,-0.7165903229423944,-0.042906076210729865
462,315.988,0.042253993276553097,0.10314105597830718,0.06207640257837728,-0.24972315179472832,-0.4210231360088796,0.08463450007149949,-0.36926774478850427,-0.499611566325121,0.037039486383247854
463,315.995,0.04045383891032569,0.10011000076602602,0.06268460293487756,-0.26460666712701997,-0.4449926389279748,0.08913703035702737,-0.06435973779528238,-0.19873388349218474,0.0941406030902847
464,316.001,0.038884443374024115,0.09743500652436672,0.06323660260574407,-0.2585251783092952,-0.44667210829598425,0.09486285993267285,0.2710728293455164,0.14164781203328286,0.10048343861177089
465,316.008,0.03717684069875964,0.09438130010388922,0.06391775028328911,-0.2293613003373479,-0.42581544041124997,0.0997507622229132,0.5786094335482928,0.4660059705594155,0.04192436746841382
466,316.015,0.03573794536626157,0.09154362061189496,0.064612036143708,-0.1817516518046644,-0.3849501287293892,0.09861662646805505,0.8084857236780931,0.7245946257365833,-0.07496712795258462
467,316.022,0.03467511325166174,0.089041813890978,0.06526623114542739,-0.12191466665221204,-0.3298517915320904,0.08829623116592304,0.9348498161970963,0.8806815956397118,-0.22571499815935084
468,316.028,0.03411018744229096,0.08722134043792285,0.06574287759378757,-0.06639393647048095,-0.27697269281672976,0.07058591828671214,0.9523298078833661,0.9167075472754921,-0.3762681078325472
469,316.035,0.033864285202663026,0.08549347439830471,0.0661325362447386,-0.0038638462803076146,-0.21670331850238383,0.04074512484207427,0.8694686711408138,0.8392255422767976,-0.4931359174131946
470,316.042,0.03402668472380712,0.08415851382239892,0.06629216084587546,0.05026370946467762,-0.16471398890209415,0.0048619040545083494,0.707524076357381,0.6754705233135258,-0.5523127114787648
471,316.049,0.03452339158640257,0.08314228993883328,0.06619446854729427,0.09165253699106388,-0.12563569211644984,-0.032773989363397434,0.4983290226361353,0.4630658426252255,-0.5441995944675324
472,316.055,0.03514169419425849,0.08245063002451201,0.0659080190125817,0.11444833229325932,-0.10491761265620475,-0.06270918887367156,0.276512379272658,0.24115287495064297,-0.4733140148394583
473,316.062,0.0359844130551333,0.08175067107437835,0.06536967113374238,0.12632848509937164,-0.09507065881041488,-0.0911044907945933,0.06961289012846489,0.045735653191932076,-0.35397597776472794
474,316.069,0.0368640073930057,0.08107940101725909,0.06466475557399541,0.12498418286399106,-0.09672078608066535,-0.11029995484725544,-0.10877879825872402,-0.09381169693336695,-0.20527904823871787
475,316.076,0.0376945200478341,0.08037209985596935,0.0638622152249154,0.11230514708680947,-0.10536526000197183,-0.11899728774686881,-0.2606217259387054,-0.1580428805013416,-0.0481155622583037
476,316.082,0.03831014129202623,0.07971361651776422,0.06315252156806833,0.09290193431153004,-0.11412918606743849,-0.11756726453660056,-0.3989039624248239,-0.13984770277659905,0.09672282400670824
477,316.089,0.038848047366289155,0.07889234684096892,0.06236658374289261,0.060785515477767574,-0.1205192930167663,-0.10698639979915847,-0.5367998372195726,-0.0463264589059105,0.21154801371010426
478,316.096,0.039128012010188395,0.07805525439105086,0.06167735818473733,0.019204382779100512,-0.11864997838822176,-0.08993518824506655,-0.6746560246886325,0.10078847130254791,0.2852347540788012
479,316.103,0.039086132248597326,0.07726900878106818,0.061119931268179266,-0.031170028947969844,-0.10599162446381137,-0.06932964505712418,-0.7929898140908651,0.2680094923067333,0.3151025735196768
480,316.109,0.03875348869945469,0.07669342408717897,0.060758813706061454,-0.07971115410009552,-0.08586994016682939,-0.051042875649379815,-0.8569492630439968,0.4159374313650112,0.3064746014187678
481,316.116,0.037992841450322355,0.07620306394348039,0.060470820347826706,-0.13761663136613156,-0.05423295803266424,-0.03124094098906032,-0.8301122794805628,0.5057981004029377,0.2704497934796021
482,316.123,0.03684699928714993,0.07594490309096114,0.06031113629674855,-0.1897668438257576,-0.019527285544213825,-0.014383073604665474,-0.68927106781333,0.5053429544184805,0.2206999404657397
483,316.13,0.0353838978823333,0.07591633808030472,0.06025740052215693,-0.2282621289786944,0.011365853928100293,-0.000970004850071737,-0.4322794005761029,0.39472090814393646,0.17008645024389252
484,316.136,0.03396932078663356,0.0760345082717554,0.06027787989876341,-0.24326356958563322,0.02802420988860386,0.007796463718864987,-0.07762767291882777,0.17150561366945966,0.1278905540982245
485,316.143,0.03229810257180938,0.07623342844273256,0.06035958455050153,-0.23422734893909802,0.028810124676720814,0.01554772249219877,0.34089569284414406,-0.14860818362751937,0.09794042425075847
486,316.15,0.030793379383687744,0.07635282354755052,0.06048953285810911,-0.19569356195249055,0.005302762414100486,0.021580365395654975,0.7817765168030979,-0.5362729141874045,0.07781911219941699
487,316.157,0.02966195050423038,0.07621089877288983,0.06065714299309801,-0.12757183217795376,-0.04585269803141014,0.026308244601140136,1.202932977686811,-0.9541285829154817,0.059926461481468185
488,316.163,0.029140852693442108,0.07573154142659554,0.06082330023853434,-0.04612743808397385,-0.11393308406592567,0.029077503877372294,1.5654059927598092,-1.3599605312465226,0.03420215791519759
489,316.17,0.029226492717567745,0.07456539726581253,0.06102988421997499,0.07059601640556724,-0.21925096187183762,0.029946490819913584,1.8353025494599435,-1.7084493977546198,-0.008884441510202179
490,316.177,0.03017998205627937,0.07259051540131303,0.061229395624428716,0.2018295089404175,-0.3450009994133313,0.027056767595396478,1.9881523083517447,-1.9552463754897402,-0.0753069191485648
491,316.184,0.03207364822780116,0.06969291158347007,0.06139036467687729,0.3392179686368505,-0.48288580568406647,0.018934390247021475,2.0146259724601787,-2.061992838152799,-0.16133650571019933
492,316.19,0.03445498894433311,0.06643751177928134,0.061467528931612975,0.4545622702108624,-0.6022474623839451,0.006787027998325623,1.9059891738794261,-1.9951743800253245,-0.25155890195544706
493,316.197,0.038058400296601,0.061775702723417925,0.061444130572157106,0.5749838304363696,-0.7296979821475064,-0.013472273557140665,1.602462750519431,-1.7180645158396577,-0.3386907626075007
494,316.204,0.0423960295129311,0.05631712244345268,0.06125598869677424,0.6643388027999164,-0.8298963835557347,-0.04028254798078192,1.0008719360302338,-1.2011907535994242,-0.44241985179692606
495,316.211,0.047180003056007475,0.05030633217720192,0.060850210410314194,0.7025107809352134,-0.8874722639432558,-0.07565410529343308,0.11125906356900929,-0.47626806661746923,-0.5881215902020057
496,316.217,0.051331093904430816,0.044968321027345236,0.06027622484297686,0.6811861685457362,-0.8918647860173339,-0.11567441715324495,-0.8360941632064102,0.32696386745673967,-0.7721904382004869
497,316.224,0.05581405281977216,0.03888916601373867,0.059258660731766805,0.5996592358365901,-0.8450366464404435,-0.17505818604942028,-1.5391725533026606,1.0373622225465262,-0.9579407598315451
498,316.231,0.05960585040629602,0.03328229885007886,0.05778643500346159,0.48371150316945244,-0.7569254003183571,-0.24557773632319713,-1.8389355283723778,1.5297368122053585,-1.0966286329121966
499,316.238,0.06255974812058297,0.02837800843779943,0.05579739409867934,0.36025927234050126,-0.6443004317604801,-0.32271966504275307,-1.7578142231843426,1.7515633713521976,-1.1508820932495927
500,316.244,0.064441233686824,0.024817686697787132,0.05366178403817739,0.2669025830701811,-0.5424734815712856,-0.3891503551211647,-1.4154300980967731,1.7095896961651948,-1.1071329638152365
501,316.251,0.066025131502046,0.021400559226566626,0.05068771952270472,0.18563964985374198,-0.4338486530703748,-0.4605823635916054,-0.9521450594906359,1.4551674111246924,-0.9740206694254665
502,316.258,0.06715153430640403,0.018666575125134963,0.04725378798384049,0.13618972281975011,-0.34728966162382824,-0.5205409332260447,-0.48856614985510766,1.0667070733609723,-0.7728572038076793
503,316.265,0.06803314769157191,0.016439335418129367,0.04345370292751813,0.11569981579946675,-0.2890645403773156,-0.5651976542938524,-0.10840214702998616,0.6296672162856602,-0.5282051530850072
504,316.271,0.06873050390771673,0.014779931736007047,0.03999261468735315,0.11675225624769899,-0.2640700203274835,-0.5884984257556322,0.14417516663835436,0.2199100280574737,-0.2638006613935544
505,316.278,0.06959623745724659,0.012944897142172566,0.03584109666710103,0.13060018647494204,-0.2602255779105649,-0.5976495800298393,0.25928080390155334,-0.1079031634177839,-0.0028159209168619336
506,316.285,0.07057191196315718,0.0110713139506571,0.03168518408248193,0.14816395807074223,-0.27508390537918587,-0.5897540155747705,0.2524352720203292,-0.3249904770815674,0.2328512090722956
507,316.292,0.07165800423242685,0.009055499472439051,0.027636042213155132,0.16214811886574929,-0.3008630884016649,-0.5671436613843106,0.15498974191294587,-0.4260795482196299,0.42589578376645154
508,316.298,0.07264502850848373,0.007175330106540775,0.02432077335928077,0.16685997315163928,-0.3258600335614347,-0.5379459565685344,0.005168731703341635,-0.4235801269208936,0.5665499823085006
509,316.305,0.07379438141797713,0.004802364091241464,0.0207016788144257,0.16152657241767085,-0.3521302565235983,-0.4960810562464606,-0.16055602309568753,-0.3417962237375089,0.6531733780655853
510,316.312,0.07486805641013453,0.002270968387838869,0.01739058731210874,0.14523771105565053,-0.3711256587337692,-0.4499450872719947,-0.3140158632411694,-0.21163005071203855,0.6909864952108691
511,316.319,0.07579445361334222,-0.00036013319032789136,0.014406848801012418,0.11944720414635979,-0.38061764931333947,-0.4025516301834883,-0.4373840806532379,-0.06491671178552279,0.6898099785659646
512,316.325,0.0764264740426456,-0.002643295302236929,0.012110780176895191,0.0912262722890922,-0.3804363879932494,-0.36280457785918385,-0.5218606446913054,0.0710778820149385,0.6612138105462269
513,316.332,0.07693442852002713,-0.005276485520022019,0.00972453010291251,0.05390357839123942,-0.3719036742305244,-0.3189811575639522,-0.565526671869428,0.17752059125775907,0.6155705375441107
514,316.339,0.0771751732145519,-0.007829012175018623,0.007632873264820791,0.014880620044359874,-0.3573896557679838,-0.2786350818903976,-0.571397422549058,0.245341692790899,0.5599022480081344
515,316.346,0.07714510358361742,-0.010268337240329486,0.005809438806250217,-0.023471943168489225,-0.3395603628917647,-0.24234619198653706,-0.5459948779473746,0.2741102789748012,0.4973654487321853
516,316.352,0.076912104150978,-0.012257722971292349,0.00443707880390984,-0.054194534378351096,-0.3235682140989722,-0.2151071421290715,-0.49828260077051034,0.2694715011732852,0.42850457679789045
517,316.359,0.0764202092227105,-0.014461435506118826,0.003025284166062733,-0.08634687369797447,-0.3060639387081426,-0.18826275439838522,-0.43846773321132554,0.24051116775376494,0.3535999202428819
518,316.366,0.07571788162404954,-0.016551245461814898,0.0017829569171220261,-0.11431815449073095,-0.2910246200617374,-0.16668788815584878,-0.3764685102775747,0.1976556052710835,0.27497839119508555
519,316.373,0.07483396669852607,-0.018546535577328636,0.0006729629654599579,-0.13822896708721902,-0.2790582700846377,-0.15045324089022982,-0.3201670117252351,0.15098099706628584,0.19801398105398874
520,316.379,0.07395214019711138,-0.02019795143740864,-0.00020079418753823398,-0.15571320004960726,-0.2714136832727351,-0.1407991434411101,-0.2741315157129406,0.10886264005295093,0.13013400862898575
521,316.386,0.072800427052115,-0.022075514668818214,-0.0011613294039439297,-0.17334769852055384,-0.2650329542724743,-0.13363948981746396,-0.2396451699597983,0.07703829743789786,0.07846070220909837
522,316.393,0.07153229271694328,-0.023914494660969773,-0.002081680642202467,-0.1889763972454751,-0.26038990063186224,-0.1293180068297798,-0.21569304368785025,0.05823590470762748,0.047444619696114215
523,316.4,0.07015953532882169,-0.02572392273222803,-0.002976703400779334,-0.20323999936041273,-0.25658954829869873,-0.12640278133485672,-0.1998734229423721,0.05248640641101697,0.03748974320838745
524,316.406,0.06890577165022714,-0.02725371840296826,-0.00372784278608799,-0.21468122683577337,-0.2533423419456092,-0.12397701376683307,-0.1890200821555638,0.057887892426133895,0.04496340739221055
525,316.413,0.06735868291568421,-0.02901158184310389,-0.004582656560502852,-0.2273441258904601,-0.2489043552356408,-0.12025549320866707,-0.1799103026832281,0.07141173617763964,0.06346215975321282
526,316.42,0.06572522811231939,-0.030734575458841784,-0.005406522780541373,-0.2393572464991554,-0.2433795349748337,-0.11513485537359947,-0.17008895026354662,0.08955251507178684,0.08572633799544185
527,316.427,0.06401026823570827,-0.03241439879027422,-0.006189505601843575,-0.25063128967509807,-0.23656998829123302,-0.10857452214115547,-0.15837746723112972,0.10884191796514807,0.10540732370902275
528,316.433,0.06247972410168331,-0.03381306807970923,-0.0068212223930737455,-0.25955008833561827,-0.22965310818929305,-0.10199774160322421,-0.14477731925090412,0.12626657480837702,0.11814100108290126
529,316.44,0.060629854202843746,-0.03538870956612649,-0.00750637598484163,-0.268984168475308,-0.22053017364388902,-0.09376042747317434,-0.13008223711960468,0.13952783278814476,0.12185107805418537
530,316.447,0.05871744408343492,-0.03689797908731019,-0.008134060166206724,-0.2774187227839667,-0.21068968955114692,-0.08557791005958129,-0.11565638510256522,0.14717220072366505,0.11654451250607453
531,316.454,0.05674920649477352,-0.038337259323021386,-0.00870661879253162,-0.28493487397603157,-0.2005332349374715,-0.07801026889027189,-0.10332479288990576,0.14873355458867502,0.10393681304645472
532,316.46,0.05502209655579273,-0.03951455494616148,-0.009157825416664817,-0.29076843902026933,-0.19189863944440394,-0.07239193915483409,-0.09496123561337734,0.14476101263894162,0.08703325099050656
533,316.467,0.05296429101912584,-0.04082405271701022,-0.009645764450187548,-0.29717600002699235,-0.18224358079782557,-0.0670192132801322,-0.09172144564936387,0.1365366970513915,0.0694997685042254
534,316.474,0.05086181031989376,-0.04206825765204979,-0.010099970128478875,-0.30353277118174504,-0.17324354349893953,-0.06275383766015438,-0.0934814860274105,0.1256771301221407,0.05477087932803344
535,316.481,0.048713962663396455,-0.043252188748469776,-0.010527233466776503,-0.3101379878170465,-0.16502248404938663,-0.059321401853366706,-0.09895984235097717,0.11384137297953101,0.04523227616296271
536,316.487,0.04683501440149152,-0.04422323039493931,-0.010875476780730359,-0.3161780994816085,-0.15865806477224595,-0.056759702797364295,-0.10634681739974297,0.10248867778909013,0.041841259175818636
537,316.494,0.04459530586402686,-0.04531038931267686,-0.011262452255131448,-0.32373862550783783,-0.15195876886683243,-0.05380471846001068,-0.1139272102454601,0.09269362650467915,0.04425146762112917
538,316.501,0.04230098990378062,-0.04635274000356717,-0.011627605423568119,-0.33178022028165793,-0.14585571424688978,-0.05052475823695377,-0.12036263458664488,0.08511733762936231,0.05130935001883077
539,316.508,0.03994910836767115,-0.04735388308913123,-0.011967713359488768,-0.34018593289199567,-0.14018516734263764,-0.04664893774030528,-0.12453569199587776,0.0800926227910257,0.06161170709607819
540,316.514,0.03788595753921592,-0.04818106413679287,-0.012235664719342104,-0.3475310099231288,-0.13554184854326043,-0.042668182210380046,-0.12512744581020493,0.0777362925998927,0.0736963246954859
541,316.521,0.03542372129358394,-0.04911115233227125,-0.012515184017518558,-0.3559650602569342,-0.13019763587894295,-0.03719447441140689,-0.1205964932311421,0.07796600166875314,0.08577877781059033
542,316.528,0.03290425795818427,-0.050003516940266494,-0.012753765467652547,-0.36388160699960165,-0.12476368069094404,-0.030971654198255604,-0.11005010860571,0.0803509184967914,0.09552152681205546
543,316.535,0.030332555812130183,-0.0508571080633667,-0.012947028828381071,-0.37089043472961164,-0.11911949733751136,-0.02424644886699781,-0.0941503276873006,0.08409094648924655,0.10041564209892372
544,316.541,0.028092303751693064,-0.05155660170305858,-0.013074927402693438,-0.3758602520862707,-0.1140450492275432,-0.018386409237324677,-0.07477645011763956,0.08839228716655506,0.09877027187104127
545,316.548,0.02544582650574959,-0.05233314450997955,-0.013180880977811345,-0.3802761038970388,-0.10782432417829026,-0.011886040796341424,-0.05387828375507321,0.09284697538191976,0.0906163306888429
546,316.555,0.02277345430013298,-0.05306507286405913,-0.013243843614911452,-0.3832588119928753,-0.1012980627014397,-0.006103284089390672,-0.03302216778500705,0.09729401427730956,0.0778628341620235
547,316.562,0.020085022834514465,-0.05375029191970387,-0.013269565641649102,-0.38486446389757967,-0.09447881033977366,-0.0012458664070755946,-0.013758097347129194,0.10138319125337379,0.06365681051965696
548,316.568,0.017774824191220583,-0.05429899727397782,-0.013266898802388526,-0.38520175053733297,-0.08842297441907047,0.0021348128272717626,0.002293542181166541,0.10445794446343211,0.05125430368560999
549,316.575,0.015080361032825567,-0.054892692099200946,-0.01324065064406975,-0.3846448661464071,-0.08120411850170162,0.00536466097808722,0.013931144738292057,0.10586161033906552,0.0428465113098457
550,316.582,0.012392015314557909,-0.05543575584163833,-0.01319327918078982,-0.38345391050094657,-0.07395695076601293,0.008170042816169032,0.020767048993501704,0.10528280218227802,0.038887584229691456
551,316.589,0.009713122227776077,-0.05592844583477568,-0.013126834443753515,-0.3819441142933153,-0.06681161870170063,0.010814167765618344,0.023220484469728925,0.10289465362015289,0.03814833234433659
552,316.595,0.007425481308166747,-0.056311471188238635,-0.013055201155929548,-0.3806028589061538,-0.06086349911867458,0.013063594842256708,0.02236951099780549,0.0992851455636543,0.0383109096539545
553,316.602,0.004766323480682682,-0.05671415052423377,-0.012954720268194131,-0.379156520380634,-0.054187739737931534,0.01564523022521755,0.01976919882899535,0.09521142799444841,0.03690438908953542
554,316.609,0.002116653579995284,-0.05707106044570811,-0.012836890764266758,-0.37789202267236743,-0.04778652354037706,0.01802034232543673,0.017071624439345602,0.09128639884608186,0.03229390565994533
555,316.616,-0.0005246714673701643,-0.0573840543238713,-0.012703959134741791,-0.3767722765743642,-0.04164029879189884,0.019960123253097668,0.01555189700499339,0.0877823161432026,0.024221124670334906
556,316.622,-0.002782526434473931,-0.0576186794130897,-0.012580858141648998,-0.37584604578996433,-0.03656806428052824,0.021073541110970855,0.015931187921915897,0.08462567609833353,0.013624550045899164
557,316.629,-0.0054093117000461105,-0.05785469604783732,-0.012431466580489442,-0.37466403008726495,-0.03086525993303,0.021609762077443473,0.018506542821975187,0.08152409683254681,0.0019981131898274282
558,316.636,-0.008026943869146968,-0.05805156898127264,-0.01228106768338466,-0.3732308753695885,-0.025384149619876815,0.021361351381034822,0.023248060072867144,0.07816667606570574,-0.009235496464251935
559,316.643,-0.010633180162541823,-0.0582109268629153,-0.012134937082187682,-0.37140806560588463,-0.020146673706935677,0.020390248961267878,0.029859044762478013,0.07442586974992303,-0.01905732873305622
560,316.649,-0.012855643282007913,-0.05831902021101305,-0.012016649516054136,-0.3694129742126082,-0.015884442325476363,0.019038939749726067,0.03795518990708751,0.07044967835396435,-0.026874401658577952
561,316.656,-0.015431303336538185,-0.05841374643323656,-0.011890492634239318,-0.36648989850980035,-0.011180192595505553,0.017005883625910594,0.047207886833281185,0.06660745649017416,-0.03235817809419973
562,316.663,-0.01798417303146109,-0.05847639518544353,-0.01177957824687668,-0.3629014428962228,-0.006719450892186881,0.014683941334820587,0.057340866558549176,0.06335513313204238,-0.03529102761499754
563,316.67,-0.02050941163722159,-0.058508480565838086,-0.011685302494476801,-0.35859530160626196,-0.002447800649108829,0.012251987922268052,0.06811747883412517,0.06109832426894862,-0.03556332449886094
564,316.676,-0.022647967314626056,-0.05851247073944513,-0.011617868062409033,-0.3542565908652432,0.0011177427800885607,0.010226156100427142,0.07935764403451177,0.06009642382593749,-0.03329579395138896
565,316.683,-0.02510730903717413,-0.058490169632757806,-0.011553762469572782,-0.34841247271941905,0.005254001987712205,0.008089727567059715,0.09090927093266359,0.06041244974806407,-0.02894851500123577
566,316.69,-0.02752295130792969,-0.05843869859790596,-0.011503415298767571,-0.34177103321024804,0.009452007969948668,0.006295178377276116,0.10258740178187992,0.06189540060227294,-0.023335225107548034
567,316.697,-0.029889317148307254,-0.05835738699506176,-0.011464258123581926,-0.3343334926114305,0.013779878556948469,0.004892585961471903,0.11410347631213104,0.06419602240432265,-0.017528952795149516
568,316.703,-0.03187421931701408,-0.05826314395562704,-0.011437565241550545,-0.3273005636272867,0.01763446792143885,0.00400504138236316,0.12494958068411958,0.06682355324106411,-0.01263916710692078
569,316.71,-0.034134179833652065,-0.058123359761084674,-0.011412192156181578,-0.31840244112596205,0.022303873376351882,0.003244411580193662,0.13429498444896498,0.0692184023971929,-0.00952159121724713
570,316.717,-0.03632991848246208,-0.05795040974670096,-0.01139165359236097,-0.3089514585335933,0.02711041644753079,0.0026237495114048376,0.14105702063685563,0.07081902326150286,-0.008561242334865283
571,316.724,-0.038458309857343616,-0.057743579944358026,-0.011375471920179946,-0.29916036286069614,0.03198381279326601,0.001999585397455829,0.14420409366211956,0.07116615576735545,-0.009623622423773355
572,316.73,-0.04022791198195691,-0.05753921327086338,-0.011365400823553246,-0.29070701200758425,0.03613841170462358,0.0013574468114280621,0.14312987030014107,0.0700509065096956,-0.012203015147830294
573,316.737,-0.04222910315535331,-0.05726970815266655,-0.011359247760016431,-0.281061894676694,0.040863050637272844,0.0004005713419462637,0.1378782016534626,0.06760026263561154,-0.01567531142447712
574,316.744,-0.04416445752097402,-0.056967831624463,-0.011360665444287042,-0.27189649550025574,0.045387385992252144,-0.0008056239906920989,0.12915340230716557,0.06421511206205543,-0.01946688676720187
575,316.751,-0.04603802321477272,-0.05663514710082157,-0.011371415382074047,-0.26340798844619495,0.049665335048860164,-0.0022657868056176417,0.11815711960904583,0.06042185969077713,-0.023074590260743655
576,316.757,-0.0475986584700443,-0.05632681014768386,-0.011389345944839325,-0.25680376330851495,0.053113649329883855,-0.003711067449446619,0.1063240619581725,0.05678820630210278,-0.026051279899541327
577,316.764,-0.04937208775829735,-0.055941715175266755,-0.011421823790525063,-0.24989031904913792,0.056913485646353804,-0.005568317032186131,0.09509740086471069,0.05391907079972489,-0.02805922041659066
578,316.771,-0.0510995922203159,-0.055530550877968404,-0.011467644045626474,-0.2436823843843802,0.06056202786737675,-0.007523184425350238,0.08576921704262119,0.05238029081481633,-0.028895350298549713
579,316.778,-0.05278554331954566,-0.05509401434849828,-0.011527181353020756,-0.23801792968092148,0.06416269483828223,-0.009487474830146997,0.0792632486371449,0.052524237407007075,-0.028333757494787497
580,316.784,-0.05419995003961084,-0.05469960311387073,-0.011588894236949155,-0.23345097700968864,0.06730771670485217,-0.011083486479416309,0.0759699407888835,0.05437675551054441,-0.02591554100085275
581,316.791,-0.05581586372298515,-0.05421498737882558,-0.011672115087744886,-0.22823864681121295,0.0711539218793783,-0.012693899462204072,0.07588999094758275,0.057681466629486984,-0.021003436945937343
582,316.798,-0.057394934980264704,-0.05370253133818056,-0.011765075919623015,-0.22292456955405143,0.07526208973338137,-0.01386633821724241,0.07893431579930339,0.062008972409332494,-0.013155271832216889
583,316.805,-0.05893571813359762,-0.05316022691487206,-0.011864018388581652,-0.21729918854075153,0.07968203121179299,-0.01440293862806231,0.08495974772744012,0.06676491290343121,-0.0024784464193053114
584,316.811,-0.06022375893690709,-0.052669963390148344,-0.011949739992053537,-0.21204774589775696,0.08373914369687849,-0.014170929196033868,0.09353962575957256,0.0711385330611122,0.010364572399449108
585,316.818,-0.06168437409593942,-0.05206632746041365,-0.012044756161387612,-0.20527087096832636,0.08872826479862515,-0.012976547756539556,0.103902923922116,0.07421825768053751,0.024433430981447905
586,316.825,-0.06309495028472967,-0.051427267548742744,-0.012127996358190422,-0.19775089725716904,0.0938602813929305,-0.010806365615675021,0.11518962220443915,0.07530175736178217,0.038794280851498816
587,316.832,-0.06445014838804333,-0.05075228623663066,-0.012192659625636499,-0.18944856083217188,0.09899152206752641,-0.0076688536546197054,0.12669686517158327,0.07419565145460413,0.0526163424370153
588,316.838,-0.06556347972806234,-0.050145490982556565,-0.012228288501183727,-0.18166188583905757,0.10327356262287239,-0.004207438194399614,0.13797642601610113,0.07135322117521124,0.0650390397170524
589,316.845,-0.06680064730293384,-0.04940585002994032,-0.012240911343439125,-0.1718145641239721,0.10805242383876093,0.0006009118357173026,0.14892281990604406,0.06787770057934533,0.07505103123665119
590,316.852,-0.06796626651824199,-0.04863345558875258,-0.012217871620499266,-0.16121949739510996,0.11263170221651377,0.005981866147147794,0.15976178926777782,0.06553842529403806,0.08172172169762859
591,316.859,-0.06905506796113363,-0.04782913929019481,-0.01215599967072827,-0.14986662914513732,0.11717295451411225,0.011695833787410046,0.17100117696911296,0.06676982027970878,0.08475329096529967
592,316.865,-0.06992291196625094,-0.047113650703412696,-0.012070853345117196,-0.1394147058925867,0.12132324107878803,0.016686274749479167,0.18426534294341962,0.07430066300309626,0.08487449433159208
593,316.872,-0.07085232537922959,-0.04624459234997826,-0.011933808130356622,-0.12613198352969285,0.12697914561658616,0.02246950089637114,0.20272343836851375,0.09048269574673452,0.08361834753410524
594,316.879,-0.07168355704268474,-0.04533080680381539,-0.011756536245006912,-0.11136277745732545,0.13410243900119143,0.02817960920350967,0.22757367262561023,0.11705266865541483,0.08274422442717895
595,316.886,-0.07240507188841647,-0.04435934461921338,-0.011539277251553187,-0.09478432132301913,0.14345818517061484,0.03389438892608189,0.2554354846967746,0.15552464715773923,0.08375444804997056
596,316.892,-0.0729262160994346,-0.04346664369859718,-0.011320842105894898,-0.0789304156838407,0.15410878836951647,0.038917326293689776,0.28344733594883953,0.20649511150778124,0.0869779076349129
597,316.899,-0.07340723452031066,-0.04233116327224621,-0.011027115253331271,-0.058503418852077625,0.17031419058767203,0.04500463158157213,0.3116880883878088,0.26564521362564436,0.09037420366210065
598,316.906,-0.07373905124748778,-0.041068651973471614,-0.010690447325226265,-0.03630136034132011,0.19040332334766955,0.05118620501978958,0.33516331232327284,0.31964662580352304,0.08972438652817206
599,316.913,-0.07391199697278175,-0.03965555050985954,-0.010311734303768928,-0.013111704028350907,0.21333995196977604,0.05701751539651515,0.34046150241112044,0.3486062906821591,0.08016937730180655
600,316.919,-0.07393288906611946,-0.03831527559639927,-0.009957471532669522,0.00614767291574924,0.23341835251908008,0.06107007497050814,0.3141751283170301,0.33386939501405716,0.05757931275415992
601,316.926,-0.07382217025701177,-0.03660949017336332,-0.009520703732460382,0.02548627254356928,0.2539489112051297,0.06372072508915695,0.24925011673333938,0.2642832779472183,0.019646712986300854
602,316.933,-0.07359650079774145,-0.03478346413975728,-0.009076281170944516,0.0389907158193325,0.26777281268193576,0.06325714962957149,0.14419844771027998,0.13847262098131327,-0.03315286761709097
603,316.94,-0.07330593513056427,-0.032896690214378556,-0.008649155565177287,0.04402804623123032,0.2713054517116005,0.05877873773240663,0.002562909179300666,-0.035550069748594954,-0.09732453866659437
604,316.946,-0.07305617891517785,-0.031293364110996924,-0.00831980656906097,0.03922402556384428,0.26313658274639085,0.0510042609725083,-0.16585416791234078,-0.24211420110062884,-0.16693412798175863
605,316.953,-0.07284302437586317,-0.029535812791814508,-0.008011014841725037,0.02167727138365865,0.2390209370237325,0.0372219468384115,-0.3453661098821173,-0.4604890826139038,-0.23461013416102547
606,316.96,-0.07279488810643747,-0.027998291682600714,-0.007813802154328867,-0.007924051547757417,0.2002708084656088,0.01912453527473962,-0.5170610020818464,-0.6684861844052254,-0.292653408250325
607,316.967,-0.07299200946607354,-0.02677833845926365,-0.007755211546740907,-0.048396336919650014,0.14828725534473203,-0.002384361678191397,-0.6620888713455487,-0.8460415848953331,-0.33400290449709336
608,316.973,-0.07340828166096716,-0.026049556313200443,-0.007830149859918716,-0.09036106137756145,0.09464012667517771,-0.022595076047625763,-0.7643147920770971,-0.9774533112312124,-0.3529701994455668
609,316.98,-0.07423023683460878,-0.025630959197249142,-0.008072275672954021,-0.14448327394844634,0.02495904931082288,-0.046583727676697696,-0.8125222833723241,-1.052687383801678,-0.3459331432294778
610,316.987,-0.07543563676766006,-0.025711016030818473,-0.008477396757536329,-0.19991670692310248,-0.04783243033061545,-0.06916515363245049,-0.8025168693488697,-1.0680741006833052,-0.3119710327483872
