,Time,Position X,Position Y,Position Z,Velocity X,Velocity Y,Velocity Z,Filtered Acc X,Filtered Acc Y,Filtered Axx Z
0,191.869,0.0,0.0,0.0,0.0,0.0,0.0,0.001791141745532314,-0.0007404379772205411,-0.00010392160429451091
1,191.876,1.9023808950149813e-06,-7.733337743990627e-07,-1.1386449823485092e-07,0.0005435373985753205,-0.0002209525069710029,-3.253271378136273e-05,0.014044683902659246,-0.005696957841530584,-0.0008439108441341277
2,191.882,1.1024647286267237e-05,-4.612729428188163e-06,-8.247567335482025e-07,0.0024972180651753164,-0.001058846044291982,-0.00020443136465641212,0.05236197778778964,-0.02278349631698931,-0.0049990171987429975
3,191.889,4.942781774266561e-05,-2.2402471523089708e-05,-5.847422941569567e-06,0.008475116350930663,-0.004023937411390542,-0.0012306161233486665,0.12180258796973424,-0.06360369625412872,-0.024898618114073772
4,191.896,0.00014493170415310353,-7.416344250668256e-05,-2.880169606122673e-05,0.01881170833785718,-0.010764911441114036,-0.00532774762514675,0.1793514244886078,-0.1327928897285914,-0.09447027957450027
5,191.903,0.00031070939679217447,-0.00018962748113275012,-0.00010926943484524594,0.028553346701843535,-0.022224813880595978,-0.017663034884556592,0.10446876353189412,-0.20108849074788568,-0.26491521785839417
6,191.909,0.00047044309762459165,-0.00035821599147405005,-0.00028829911679086246,0.024691220242293522,-0.03397135623316854,-0.04201352576398,-0.23574452911102894,-0.19818283203043724,-0.5627711269322153
7,191.916,0.000515641574689931,-0.000628428402624668,-0.0007636368613753472,-0.011777369652205803,-0.04323218980980997,-0.09379725840291855,-0.8267586817414689,-0.07162922922055984,-0.9459349227935627
8,191.923,0.00015725847756742383,-0.0009216919800130062,-0.0016920065345072885,-0.09061780095415166,-0.04055740372965534,-0.17145121963458942,-1.47023749073594,0.14955845013997157,-1.3164937420589433
9,191.93,-0.0008887938253116259,-0.0011416800221772615,-0.0032394017527294272,-0.20825428558250614,-0.022296322602944115,-0.2706616998571343,-1.957071955354808,0.38247356390001086,-1.573978691660566
10,191.936,-0.002505192021893072,-0.0011920079639304618,-0.0051480963245234355,-0.3305451132779555,0.005520342018544615,-0.36556982407417765,-2.1996593679630343,0.5630298996166735,-1.6519997419207213
11,191.943,-0.005346664311504175,-0.001005216646438285,-0.008089092589500664,-0.48130411232463677,0.04784860583632489,-0.47471482306157314,-2.1926662200402527,0.6701934398738043,-1.527912401874342
12,191.95,-0.009213943145841445,-0.0005045676918233309,-0.011742270897944067,-0.6236326974897084,0.09519395262556915,-0.5690504079257482,-1.954041376060289,0.7092013524180928,-1.2205311794706981
13,191.957,-0.01399780231110653,0.00033052214238597755,-0.01596602393525626,-0.7431842068707675,0.14340314286263417,-0.6377361741625872,-1.529061835418616,0.6953613018458308,-0.7806113757426334
14,191.963,-0.018679920960961056,0.0013092750106067478,-0.01988581811390103,-0.8175220097473483,0.18284781321094357,-0.6688618853856203,-0.9977202589281805,0.645384360478813,-0.2773683700771901
15,191.97,-0.0245769074373324,0.002735524751079929,-0.024575315254592542,-0.8673312692146887,0.22465211263824564,-0.6709944405252831,-0.45346001064996294,0.5725734080404266,0.21523691147770457
16,191.977,-0.030699732793741902,0.004435209008328553,-0.029170543200681458,-0.8820474040439186,0.2609719608610141,-0.6419278297848973,0.02470911700070291,0.4855962515489485,0.6316114950442584
17,191.984,-0.03682468915523593,0.006367146009154157,-0.03347700402943439,-0.867940127810267,0.2910100393744784,-0.5884895498579189,0.3863028343250812,0.3895556246470969,0.9252993745315667
18,191.99,-0.04194444605563841,0.008172996942757553,-0.0368314409178369,-0.8386455056571616,0.3109402718266305,-0.5296560796095404,0.6094372044276797,0.28788374734882255,1.074482074735895
19,191.997,-0.0476580621021099,0.01040631118410019,-0.040280007842728095,-0.7938162219049557,0.32714951141366694,-0.45564875607295585,0.6966527229517392,0.18436837856354685,1.081702716387088
20,192.004,-0.05305043325555533,0.012728692948999979,-0.04322312322967637,-0.7468612505131794,0.33638813570277865,-0.3852413544865081,0.671368580141668,0.0847966206721795,0.9695992525154519
21,192.011,-0.05812908443477005,0.01509333964982634,-0.04571030531955157,-0.7041819435471338,0.3392252073899846,-0.3253820997630413,0.5720823133414024,-0.002139249334395209,0.7743851057202942
22,192.017,-0.06226464990331027,0.01712284734461696,-0.04754672050841358,-0.6743398792995549,0.33727735754019617,-0.2867562965242728,0.4422655780580675,-0.06406921974146351,0.5385268210085749
23,192.024,-0.0668932715935392,0.019466204342599852,-0.04945284510985083,-0.6481234607649062,0.33225321331158014,-0.2578507324574095,0.32154319411270826,-0.08230796100869588,0.30362953111232877
24,192.031,-0.07136217020851668,0.021778612353523484,-0.05120895650999685,-0.6287047149420352,0.3284347898089849,-0.24389538186966633,0.24421709020914578,-0.028940849094435245,0.10295610466203164
25,192.038,-0.07570507827261168,0.024089269851509765,-0.05290923199342218,-0.6121261605127932,0.3317530667580521,-0.24189761339436647,0.23879493091151172,0.12561801492621663,-0.044751621689517226
26,192.044,-0.07932844416575718,0.026125109918596894,-0.05437641068976745,-0.5956624705356628,0.3468602889376315,-0.24716195205403962,0.3208147889258724,0.38788463139299256,-0.13418609437298276
27,192.051,-0.08340151252969905,0.02868630497742908,-0.05614264215392045,-0.5680713477373323,0.3849097278740136,-0.2574756091342205,0.4830456468403212,0.7206762194147882,-0.16629971533531018
28,192.058,-0.08723697850502432,0.03159400401597462,-0.05798230266813386,-0.5277760737833921,0.4458614259955458,-0.2681416806406626,0.6909470433651251,1.0551362029571618,-0.1444536002044939
29,192.065,-0.09074129899887784,0.03500077425892727,-0.059885757711137466,-0.4734583530311815,0.5275015005616586,-0.27570261735997953,0.8915861138633667,1.3234268731494874,-0.07583239288070785
30,192.071,-0.09341194378147276,0.03841305180583773,-0.061544292677712664,-0.4167565745004243,0.6099243484084509,-0.27714237149839815,1.035737981886458,1.4781702691566418,0.026894371625790787
31,192.078,-0.09607304961409259,0.04303956064217452,-0.06346350243021572,-0.3435593776761272,0.7119353191154024,-0.2712032720735118,1.096843970862654,1.4938937517410906,0.14613979906107144
32,192.085,-0.09821719977247648,0.048366770039460216,-0.06531285630759526,-0.2690549532902582,0.8101245086794243,-0.25718355003455157,1.0738237287031889,1.3668236350453318,0.26232128278354266
33,192.092,-0.09985364385181093,0.05433608608402722,-0.06703866224357467,-0.1985004979478251,0.8953943611956442,-0.23590386024492893,0.9817626144526634,1.1174921103536413,0.3576571368051309
34,192.098,-0.10088371152889217,0.059876691227557996,-0.06838553460466393,-0.14485539441257497,0.9514740199812105,-0.2130535934514727,0.8416634462730718,0.7886857990433576,0.4190357805334558
35,192.105,-0.10171538371445803,0.06668404617356036,-0.06977372452809075,-0.09276523003560896,0.9934845360259708,-0.18357209895751822,0.6759704152142217,0.435280038858206,0.43990015999241566
36,192.112,-0.10222244971976677,0.07370399684178323,-0.07095526495207533,-0.052110771481070635,1.0122156548934163,-0.15401087932355043,0.5084870281535594,0.11044640675142894,0.4213585524686379
37,192.119,-0.10248250492342179,0.08078532636395512,-0.07193803970073882,-0.022190715277454576,1.0110213514399615,-0.12678190600867748,0.3632262976754788,-0.14524213802863914,0.3719507490142039
38,192.125,-0.10256065588917364,0.08681136833738204,-0.0726389317639759,-0.0038596066398300724,0.9976593063689358,-0.10684878173700767,0.2598579916460126,-0.3089409952202317,0.3055869174899559
39,192.132,-0.10253142659284972,0.09371266344743287,-0.07332157697755476,0.012210834160941864,0.974139296501321,-0.08819270785681199,0.20835026647505694,-0.37630858739092626,0.23795311125678656
40,192.139,-0.1023961203884107,0.10044325536243844,-0.07388838783793243,0.026448081393035575,0.9488869649274682,-0.07375325225097906,0.20644835726010638,-0.3594117532186106,0.18273680268128045
41,192.146,-0.1021572099801937,0.1070084015213213,-0.0743647836719841,0.041812035240618564,0.9268690804739107,-0.06235984319281112,0.24117658085067695,-0.28207378257688354,0.14920730982564265
42,192.152,-0.10185919097167746,0.1125293948296713,-0.07471328886023225,0.05752763426479258,0.9134620223093529,-0.05380855288990226,0.29300512320298117,-0.17363937004768676,0.14145566896624995
43,192.159,-0.10138034979280142,0.11889522323735102,-0.07505389357316858,0.07928413112826643,0.9053460941692714,-0.04350707937755034,0.34086495077621526,-0.06281615874657301,0.158675175550905
44,192.166,-0.10074040847381108,0.1252283428558308,-0.07531584921119641,0.10355624572598679,0.9041166539665145,-0.031337388630349676,0.3662970143248136,0.02699672709979829,0.1958857090730702
45,192.173,-0.09992878861043374,0.13157009981689613,-0.07548227186455621,0.12833514381023264,0.9078139063365755,-0.016211940900986977,0.355629960424191,0.0807217924779038,0.2447904131603674
46,192.179,-0.09910077004243975,0.13703232107408977,-0.07553189514597175,0.14767104552108434,0.9129265127278995,-0.0003291529041949612,0.3016077884792223,0.09305846178234434,0.29507413442694724
47,192.186,-0.09800607999048543,0.14344207426873729,-0.07545832978220339,0.16509754075135766,0.9184315428843649,0.02134782826656767,0.20610877499733626,0.06732920974554751,0.33647926980814225
48,192.193,-0.09681583821083875,0.14988061408192477,-0.0752251127293049,0.17497153914745134,0.921151260882172,0.045285615418666755,0.08156768932859475,0.011909091314161475,0.36094214910022177
49,192.2,-0.09558749292908605,0.1563225436121345,-0.07482101806627016,0.17598425564020603,0.9194000334696222,0.0701700025916464,-0.05206244856243592,-0.0629306623197165,0.36405822376812763
50,192.206,-0.0945514084963475,0.16182046906877876,-0.07433732878193408,0.16937722193930277,0.91324178541173,0.09105975885370768,-0.17251419758764333,-0.14639151728602612,0.34599588108454843
51,192.213,-0.09341752202464801,0.16816812358443686,-0.0736209421354124,0.15459034140317635,0.9003737904892921,0.11362214015233946,-0.2582978544707885,-0.22851428416877786,0.3113534335894053
52,192.22,-0.09240137658679924,0.17440698421557924,-0.07275608939292724,0.13573692655340577,0.8821578184072569,0.1334786434146703,-0.2909916538805298,-0.3022034891795456,0.26716080382869295
53,192.227,-0.09151737741115501,0.18050204281117038,-0.07176321477195646,0.11683426648762266,0.8592874946175407,0.15019981971963528,-0.2597326014759189,-0.3641176526607921,0.22000646983482053
54,192.233,-0.09085390721157013,0.1855891136722235,-0.07082723051257113,0.10432246670732899,0.836402792400097,0.16179493340879875,-0.16555023484070272,-0.41374574334915787,0.17411771083724162
55,192.24,-0.09014613452066207,0.1913398825428922,-0.06965799541434525,0.0978983021234033,0.806674027789787,0.17227223751264129,-0.021616187475381642,-0.4523943499341503,0.13113591381935194
56,192.247,-0.08944531318002347,0.1968741798489411,-0.06842536540501959,0.10233636663033913,0.774553773937341,0.1799077651515842,0.15091808267427098,-0.48342118201677864,0.09132326698252236
57,192.254,-0.08867126368973247,0.20217642750893425,-0.0671484082275201,0.11882063059640138,0.7403741289229154,0.18493714270663028,0.32934680947595113,-0.512394194416268,0.05520638541990466
58,192.26,-0.0878855417730239,0.2065253084288873,-0.06603176338252684,0.1430866749731065,0.709252844394712,0.18727780562444324,0.4954691530496215,-0.5454350856539641,0.024354012127095294
59,192.267,-0.08674763406632707,0.21135406407773835,-0.06471777728588082,0.1820298126543291,0.6703916267046021,0.18814679341700805,0.6391293863145496,-0.586776735335793,0.0009637290431221356
60,192.274,-0.08530554388651568,0.21589970369031364,-0.06340218753509358,0.22999595300577372,0.6283625483159798,0.18773599252193754,0.7583520705513915,-0.6377299117889986,-0.012932309986234347
61,192.281,-0.08350155612648509,0.220137879556711,-0.0620915135831195,0.28542912128831033,0.5825448420823985,0.18674227947038888,0.8566793704313518,-0.697157456434125,-0.016019270291229074
62,192.287,-0.0816304498133012,0.22350435194602417,-0.060973184046795345,0.3382729831062992,0.539612621021953,0.186034232637649,0.9395120513075332,-0.7621319393821133,-0.008047624205187183
63,192.294,-0.07902815663090045,0.2270905778557687,-0.05967071498448097,0.40523935472195616,0.48502335319003465,0.18609978516619358,1.011536373285082,-0.8283126738396531,0.009957480666860209
64,192.301,-0.07594071994494118,0.23027927892258432,-0.058362533188060874,0.47688541269792584,0.42603409447462065,0.18766644238365524,1.0758535385519847,-0.8903245691277311,0.035686684042565475
65,192.308,-0.07233709168094472,0.23304137009346396,-0.05703668317118074,0.5527226627289002,0.3631348114904243,0.19114784815325456,1.1336457015677375,-0.9422302492615805,0.06574319902065712
66,192.314,-0.06881622095373782,0.2350506944908249,-0.055875511791177196,0.6209009130066883,0.3066399876298699,0.19590927851457998,1.1837698711230862,-0.9780593454030019,0.09610039219296634
67,192.321,-0.06418079812682159,0.23696046558299858,-0.05447785239556679,0.7035056089684296,0.2390088958479272,0.20342197737382328,1.2228972071694812,-0.9923555343511696,0.12278020294948244
68,192.328,-0.058959638999375605,0.23839651200439246,-0.05302203938910695,0.7882541417293583,0.17129008169288945,0.21252459590011868,1.2462300180404684,-0.9806151147197408,0.1424223025308045
69,192.335,-0.053142199393860085,0.23936487140515983,-0.051498939091725954,0.8738714598453178,0.10538403281187646,0.2226469176369968,1.248209050372971,-0.9395410732013096,0.1524889999853704
70,192.341,-0.047680848671334986,0.23983771819905395,-0.05013624850166352,0.9465787809963124,0.05223156515282633,0.2315832790504651,1.2231520889556784,-0.8671400278559022,0.15126275395941796
71,192.348,-0.04076783633462599,0.2400076706441141,-0.04848043949678686,1.0285676009191331,-0.003673723707099591,0.24150500805681333,1.1655715955634174,-0.7616465276195288,0.1378043297131377
72,192.355,-0.03329933521766343,0.23981628552241216,-0.04676018926772964,1.1052898610773099,-0.05100773963649273,0.2499950573897514,1.069712192432728,-0.6174181429153053,0.10955112610995836
73,192.362,-0.025322544789903492,0.23933507613513894,-0.04499032335252462,1.1737931182810426,-0.0864806567271882,0.25568091838274987,0.9261130079213682,-0.4160763907697852,0.056105006441332504
74,192.368,-0.0181353007247609,0.23876856898137055,-0.04345489408638356,1.221954903433064,-0.10235506119560057,0.2561288369975838,0.7109320975944315,-0.12350319615717309,-0.04088001065330584
75,192.375,-0.009450553878165874,0.23807070340631348,-0.04169007824203489,1.2594013384494565,-0.09703510310628168,0.24810426138739122,0.38006038538878845,0.2784988394725354,-0.19291398511740218
76,192.382,-0.0006018434721051426,0.2375137085546269,-0.04002329330778233,1.268801634708946,-0.06210628308976923,0.22812000554157258,-0.10618511388620666,0.739143562556044,-0.389322291747331
77,192.389,0.00817870109131775,0.2373043693450675,-0.0385450969082195,1.2399253834100878,0.0022950803585564256,0.19422182290464843,-0.7351172180980663,1.1371739930466673,-0.5982927489764908
78,192.395,0.015428616729060428,0.2375375156656251,-0.03750118296867218,1.1767131625040461,0.07542035982730379,0.15374949027777965,-1.413500332442958,1.3483937753806956,-0.77738370957858
79,192.402,0.023256777104875045,0.2383851751927616,-0.03662436814302964,1.0599040877361854,0.16676807649822434,0.09676903133521117,-1.9897027351038163,1.3129990162811191,-0.882727656331553
80,192.409,0.030158505152296504,0.23983673826713317,-0.03615879940955154,0.9120182115256796,0.24796423046478436,0.036250606801294424,-2.3189151403873782,1.0526305446072868,-0.8804614488419334
81,192.416,0.03598439823736789,0.24177650705838294,-0.03610214313326258,0.7525226699220985,0.3062554241776103,-0.020063099290173997,-2.327947421634083,0.6456687497573775,-0.7602242401381589
82,192.422,0.04011434044911288,0.2436877828425964,-0.03633730968045707,0.6241247339928445,0.33083650389351976,-0.058325749774654524,-2.036367811031135,0.1898554342031168,-0.5403439282128776
83,192.429,0.04405428276092706,0.24599929948324845,-0.03684186250530146,0.5015730693818308,0.3295968220065895,-0.08583220018078322,-1.5341441698601475,-0.22597325474702962,-0.26104959866091393
84,192.436,0.04726762869746187,0.24821487443914694,-0.037470650181304105,0.41652576962745913,0.3034245939639573,-0.09382142153412941,-0.9436875566959824,-0.5365480385332144,0.028285640287463703
85,192.443,0.05002379360098701,0.25018946614527254,-0.03809011883886404,0.37094991709344544,0.26074446492866105,-0.08316962348286874,-0.38415346470949663,-0.7069268057310868,0.2820518217190917
86,192.449,0.052220461163910936,0.25162679134132604,-0.038522934939656805,0.36127260388117083,0.2183639337558264,-0.061102410114715185,0.05521635868877721,-0.7336103526540577,0.468024686505862
87,192.456,0.05479532377718121,0.25299041353282586,-0.03882576769462139,0.37440242848422534,0.1712424066740019,-0.025421234161169592,0.32731778477796464,-0.639263508653821,0.571537416867577
88,192.463,0.057506561303633595,0.25405662614453933,-0.038863650577509144,0.40023686478733206,0.13338976810105369,0.014597553336105101,0.4253620309764547,-0.4635636129690767,0.5943999098370017
89,192.47,0.060404151766745996,0.25490419096921985,-0.038623915094469906,0.42764612467276275,0.10877161037892669,0.05389829896077031,0.37319987447723774,-0.25368023168471604,0.5506174471791082
90,192.476,0.06302178161816392,0.2555295370197997,-0.03821122847905716,0.44489715913317956,0.09967707314767968,0.08366390617680595,0.2131721098536728,-0.055448003789737986,0.46113162839833227
91,192.483,0.06616100174839389,0.25623192890919466,-0.03752825395944747,0.4520228780747424,0.1010063238221682,0.11147167085439531,-0.005566077458520095,0.09417538847221861,0.34904061412716936
92,192.49,0.06929607339362903,0.25697096684826903,-0.036677704031654136,0.4437118777060899,0.11014737305607145,0.13154259422924142,-0.23657283174075047,0.17214678602589395,0.23572069943721943
93,192.497,0.0723204547214665,0.2577832417800857,-0.03571202648510979,0.42039707310399893,0.12193117889137942,0.14436527621180378,-0.44269814697775123,0.1711714385695024,0.13786492089047994
94,192.503,0.07475085543865893,0.2585386067393922,-0.034827870940403606,0.3897364992972854,0.1298571408786388,0.15035323869164036,-0.5994713266908861,0.09823629282693573,0.06566915989023878
95,192.51,0.07732341250092584,0.2594558619808549,-0.03376482206982093,0.34527980420701726,0.13221578525337382,0.15337501004605034,-0.6957633235642646,-0.029517781125085577,0.022369389881244837
96,192.517,0.079568762569671,0.26035498894365766,-0.032687913047344926,0.2962487868625729,0.12467763269007887,0.1543132820897307,-0.7327430571470558,-0.19010440129455738,0.004966930550872382
97,192.524,0.0814677402474049,0.2611614269067288,-0.031606465755741664,0.24631626391815098,0.10573321390150353,0.15467165836812377,-0.7220284628896024,-0.3618364839665895,0.0054742723469520934
98,192.53,0.08282157440053425,0.26171731979141777,-0.030676896413287635,0.20496178712495028,0.07956441432815799,0.15518478911654068,-0.6836325526185522,-0.5276551560037217,0.011967319104321255
99,192.537,0.08409691271670713,0.2621294238757197,-0.029587972937562535,0.15942058892418437,0.038179609758019345,0.15593620394755112,-0.6431988234879926,-0.6780807351695147,0.009924963348617546
100,192.544,0.08506027842267129,0.26221771440797026,-0.028496979250764515,0.11582675563680637,-0.012953743400732465,0.1557762779945177,-0.626896564768135,-0.8116766716838602,-0.01458436583958851
101,192.551,0.08571715738772522,0.2619175474275634,-0.027416664991553652,0.07185294866494354,-0.0728082510015065,0.1528849389239042,-0.6542692613953052,-0.9321693803311146,-0.06965407208986844
102,192.557,0.0860258861832087,0.261306356590854,-0.02651900030848907,0.031056649829547756,-0.13092202790162324,0.1463366220976128,-0.7324189836694976,-1.0431493030831858,-0.15292675575964013
103,192.564,0.08605269471407688,0.2601272262037863,-0.025543175948147298,-0.023397069581500132,-0.20597236840318744,0.1324703379998363,-0.854076460340696,-1.1434235254569403,-0.2510639501903783
104,192.571,0.08566631534224521,0.2584007582538723,-0.024687357582614103,-0.0869970366560415,-0.2873041887147466,0.11204919500947313,-0.9988926131086154,-1.226158640332922,-0.34390092394673616
105,192.578,0.08480074128960592,0.2560883742052665,-0.023993663137469787,-0.16030983552643485,-0.373376968029302,0.08614921788876127,-1.1370573762307168,-1.2815501757545245,-0.4106884070740758
106,192.584,0.08362941451998858,0.2536202488742056,-0.02355145801477188,-0.23013242101266262,-0.44933147565762993,0.06125248967720208,-1.2362500388473217,-1.3001845868241018,-0.4355648398402884
107,192.591,0.08171726954282733,0.25016544359705256,-0.02322439689858097,-0.3161947153187302,-0.5377557463853908,0.03219354352013376,-1.2711532991501764,-1.2760343412268385,-0.4110602609709703
108,192.598,0.0792034040379273,0.24610256274671194,-0.023089199142425132,-0.4020525717950484,-0.6230673537111007,0.006434386810078435,-1.2302937940032834,-1.2094979200637548,-0.3394263027394251
109,192.605,0.0761071553292904,0.2414626015806418,-0.02311278936134434,-0.48258991638988413,-0.7026358365990868,-0.013174449358447068,-1.11614152124869,-1.108709852599323,-0.2318722160817279
110,192.611,0.07303004997706608,0.23706183144098453,-0.023221654442004917,-0.5431118676848505,-0.7642875432866196,-0.02311391086174324,-0.9410323113024904,-0.9868649763018317,-0.10597545202429526
111,192.618,0.06902827815380047,0.23149019491612766,-0.02339396778761426,-0.60025151039022,-0.8276086066713462,-0.026118473598034066,-0.7237168335657829,-0.8579783081656698,0.018438271021355417
112,192.625,0.06468105647646505,0.2255056035913837,-0.023559693512589755,-0.641811825990442,-0.8822746289685645,-0.02123173353778742,-0.48713252740551977,-0.7347025271328028,0.1239356737797498
113,192.632,0.06009918096664874,0.21916607596805796,-0.023669539076983007,-0.6672954625275664,-0.929018977694637,-0.010152713431690576,-0.2553268252380211,-0.6271823374682342,0.19884879553703094
114,192.638,0.05606850745393315,0.21348881068907433,-0.02369185568689588,-0.676262375044247,-0.9634027819665023,0.002713843460732536,-0.049463377215762966,-0.5415417518610806,0.23849242674317772
115,192.645,0.051342566528797054,0.20662238216664572,-0.023614815287450883,-0.674006460707959,-0.9984339387259819,0.019297699237822593,0.11518887503863791,-0.4790822054814075,0.24467404781608876
116,192.652,0.04666598843958255,0.19952333472123315,-0.023423409977837092,-0.6621587076435128,-1.0298653313986816,0.035389532080587,0.22999243602465305,-0.4366635289452999,0.2241574620796962
117,192.659,0.042093562951352685,0.1922128085540044,-0.02312633870943246,-0.6442485747069433,-1.0588564306651775,0.049487973177818535,0.2918147906038287,-0.4079848697426226,0.1865970797646198
118,192.665,0.03828044754809275,0.1857896489729706,-0.02280037126640084,-0.62678989304632,-1.0821967630126814,0.05916784116605182,0.30161523428141346,-0.3853656406254416,0.14242686447161843
119,192.672,0.033960862180798884,0.17812458716854393,-0.02235695159571011,-0.6073773547510444,-1.1078208953933744,0.06752349331692348,0.2639641952823963,-0.36118702314789425,0.10101296319242857
120,192.679,0.02976342276279211,0.17028698274644147,-0.02186383701451997,-0.5918910503928917,-1.1314946537771542,0.07336638702301579,0.18722539423496826,-0.32854198388197015,0.06921827803056468
121,192.686,0.025652708725138144,0.16229324674554535,-0.02133587165456155,-0.5825986746502593,-1.1524299179058226,0.07748085867928171,0.08350564010326911,-0.28140168054554776,0.05065582070456438
122,192.692,0.02216167075154965,0.15533486609584726,-0.020862455334802868,-0.5810806498791945,-1.1670302986601142,0.08032458124027325,-0.03190715774470919,-0.21487315181449906,0.04600384598390498
123,192.699,0.018073207304152607,0.14712471887013176,-0.020288157419364534,-0.5870517636619829,-1.1787260515426397,0.0837605374562767,-0.1420597432221736,-0.1258796721079567,0.05410187574576691
124,192.706,0.013919011484706739,0.13885685025030972,-0.01968658708760867,-0.599861327612236,-1.1835221255572763,0.08811670018883115,-0.23114368652909562,-0.01385274021728862,0.07281383181911485
125,192.713,0.009657678689656819,0.1305848475470916,-0.01904911413764564,-0.6176623281154425,-1.1799072182176393,0.09401842837190381,-0.2874839940519037,0.11917215800694975,0.099131537119847
126,192.719,0.0058993494705686395,0.1235396567242958,-0.018464868374336203,-0.6351140782472363,-1.1684897227142028,0.10073015939790153,-0.3057104244223997,0.26891468454159795,0.12900382769203955
127,192.726,0.0013822468742823238,0.11544410953744519,-0.0177253297812249,-0.6554866635479315,-1.1445237592414619,0.1105665814908913,-0.2878397336170262,0.4293276443947785,0.15757786047678282
128,192.733,-0.0032698648315227985,0.10755526773094784,-0.016910801004945655,-0.6736881095382965,-1.109431042613313,0.12215592601729788,-0.24245482569737495,0.5930898442663086,0.18007478270479915
129,192.74,-0.008036770590181892,0.09995081896388032,-0.016010893990575786,-0.6882849643633284,-1.0632686051187108,0.13496036380248094,-0.18282087497575258,0.7518411826991891,0.19297929751260212
130,192.746,-0.012193988353515602,0.09371685278188081,-0.015166936436134761,-0.6974542900811892,-1.0147201222143798,0.14635882101118364,-0.12884946157683907,0.8983479884016832,0.1944604231090256
131,192.753,-0.017105235137287518,0.08684593364370284,-0.01409695201766435,-0.7057590767154821,-0.9483996315573233,0.1593510128385281,-0.11310841203285227,1.0338828566234002,0.18406382399116877
132,192.76,-0.022079573928499994,0.08047206272143846,-0.012939594864189014,-0.7154805779156385,-0.8727063462311995,0.17132245958276004,-0.17012508477505478,1.1714220079639623,0.16472127137701476
133,192.767,-0.02714334017492173,0.07466243081987131,-0.011703026552284912,-0.731309778203823,-0.7871884827867986,0.18198277238958804,-0.2910546915770931,1.3201194735624853,0.14586426589529908
134,192.773,-0.0315909833294255,0.07018518851890301,-0.010585962402283957,-0.7512379399640431,-0.7052256175359116,0.1903719442773828,-0.38631429648098575,1.4658426117192356,0.13928822035278926
135,192.78,-0.03693496126659298,0.06561403443915524,-0.009218764997694612,-0.7756128992255743,-0.6008184052482342,0.20025588560500787,-0.32384402208021773,1.5760353060378218,0.14867792878705832
136,192.787,-0.042405923928306735,0.061792410633023834,-0.007779088691900979,-0.7875192898343825,-0.49107411078853025,0.21108020176430745,-0.023045679115243734,1.6213371608851481,0.1666858049851952
137,192.794,-0.04786274031335828,0.05874037617895248,-0.006259423689613485,-0.7715711058935147,-0.38093573323123314,0.2231097988889519,0.48769201431654086,1.5875168181485662,0.18379348711720117
138,192.8,-0.05235277687456397,0.05672499633227528,-0.0048871282493281,-0.7251077478416573,-0.2908575489944739,0.23432201453949264,1.0916226361793202,1.4742893452458583,0.19731578229149294
139,192.807,-0.057099488655860384,0.055021262600610944,-0.0031977302094731183,-0.6310956182475703,-0.19592351719696532,0.24836313970640272,1.6473971570776327,1.2915898372571577,0.21176887431417932
140,192.814,-0.061073362855509364,0.05393190532689414,-0.0014057532948861778,-0.5042970102227564,-0.11532141815047185,0.2636302644609287,2.046848453946471,1.056732082677227,0.23303497247826796
141,192.821,-0.06408826427564406,0.053346550443031375,0.000499209067869045,-0.35710339552939585,-0.05192283438162747,0.2806446963258889,2.2416005560403507,0.7903697387194515,0.26267622830161236
142,192.827,-0.06583542963572388,0.053149900377055616,0.0022323991452547834,-0.22528505783052102,-0.013627187610289242,0.2970853294693353,2.23897598127089,0.5113199912541474,0.2961497772981855
143,192.834,-0.06689334526215274,0.05314398565507324,0.004386576232603617,-0.07697654972036622,0.011937267043899039,0.31839383834417717,2.0819551685115494,0.23349397694003027,0.3246682791030944
144,192.841,-0.06696251317679845,0.053251631872578864,0.006694992323299041,0.057214288393033996,0.018818795100542247,0.3411536161397582,1.8276612102665342,-0.03300238467098569,0.33843213295154606
145,192.848,-0.06615853521417321,0.053345957801753795,0.009163305254027976,0.1724937009282977,0.008131470377989669,0.3640786497822908,1.5309755321533345,-0.2783701379844119,0.329482966715261
146,192.854,-0.06487955866359842,0.05332683345720396,0.011402785807930443,0.25383181592995324,-0.01450625189460198,0.3824148681851703,1.2337509545216072,-0.4910982762240009,0.2937750062887311
147,192.861,-0.06283926820791949,0.053087017296646714,0.014142925346606602,0.3291083142659744,-0.05401265112198274,0.4004821428677797,0.959410925755639,-0.6599107468809604,0.23261050566110075
148,192.868,-0.0603344708019132,0.0525362264120036,0.01699262725171248,0.38654808744959895,-0.10335617306165167,0.4137184014476035,0.7140824452465014,-0.7777003767555127,0.1530245649961816
149,192.875,-0.057483549282990244,0.05161800140990964,0.019915027438704838,0.42800091795637607,-0.15899382753643623,0.42125308054961597,0.4936353645122551,-0.8432887181005235,0.06649641900103448
150,192.881,-0.054846164012225654,0.050513661110805005,0.02244719948879012,0.45112750563178816,-0.209119605498428,0.42280426947877936,0.2924498489368229,-0.8605135644319034,-0.013770668985709776
151,192.888,-0.0516399778436163,0.048845887772454764,0.025396047162238138,0.46492568539880086,-0.26738706260130024,0.41972363722005246,0.10955665443451391,-0.8370941697610201,-0.07598277845555917
152,192.895,-0.04837827184817976,0.04677944523291062,0.028311500386389774,0.4669903132966861,-0.323025091553749,0.41326299825124857,-0.04940423897055392,-0.7839058354077462,-0.11224631590677304
153,192.902,-0.04513615556823974,0.0443383511866232,0.031176462712183033,0.4593286238321344,-0.37443035024498944,0.40529766626384967,-0.1738171600532088,-0.7137734708767629,-0.1198216317883565
154,192.908,-0.04241772325518378,0.04197230412297271,0.03358874905947568,0.44681548051981573,-0.41425200430514386,0.39879778283366896,-0.2515113436430314,-0.639786071547779,-0.10111291875236403
155,192.915,-0.0393528990532875,0.03892676320299556,0.03636066377737947,0.42884857716420965,-0.4559025442591342,0.39317785085256035,-0.2719498748914248,-0.5736919533190362,-0.06262238858950853
156,192.922,-0.036411096736910696,0.03560351029350485,0.03910380358459758,0.41166637037142073,-0.49359828702324743,0.39057637978062626,-0.22864940628954178,-0.5245640483033707,-0.01317081797170172
157,192.929,-0.033571475678557804,0.03202550043538017,0.041840838830043005,0.3996539320145405,-0.5286902438687877,0.39143369034607967,-0.12132996942188466,-0.49783130428216227,0.03814834606168699
158,192.935,-0.03118052017937804,0.028765733768302465,0.04420019672890358,0.39733123437868334,-0.5578986451570722,0.39501894260741516,0.042380221517585054,-0.4949780406787709,0.08371631588829521
159,192.942,-0.02836449208443797,0.024739224958283235,0.04698961757908722,0.40724822131790483,-0.5925324434190281,0.4019584431587686,0.24654870321976635,-0.5140689765983143,0.11846429045968568
160,192.949,-0.025427875432653808,0.020463568138870403,0.049834408370195635,0.43178510776268475,-0.629083790698051,0.4108389257287691,0.4683273231723062,-0.5508453498753915,0.14026633970291302
161,192.956,-0.022267319838295302,0.015921734522512616,0.05274510456318579,0.4712307763427661,-0.6685829568370866,0.42078855798548603,0.6809123277704818,-0.5999529390165553,0.14961369816498196
162,192.962,-0.0193041331925086,0.011799394720245035,0.05529614041067415,0.5164981055860967,-0.7055303105853884,0.42955672451060156,0.8577486571505942,-0.6559075824425381,0.14842102062669582
163,192.969,-0.015468186537912994,0.00669618036105563,0.058337512751410796,0.5794866528690074,-0.7525309348962567,0.43940680141353416,0.9774068541712626,-0.7134438069815383,0.13855849700166434
164,192.976,-0.011170919044628358,0.0012505865989925072,0.06144455560833902,0.6483040594971543,-0.8033529971206667,0.44831972913675433,1.0275710107934815,-0.7672442166518035,0.12111741455438094
165,192.983,-0.006388441113810714,-0.0045625756134857936,0.06460894349447378,0.7181182064497675,-0.857550492157661,0.455791095472531,1.0064466332851614,-0.8117861945474648,0.09655896789371918
166,192.989,-0.0019095744758312154,-0.00985384222233018,0.06735797500982862,0.7748373395433422,-0.9062050441237339,0.46055274297904797,0.9214673534338004,-0.8420083212851972,0.06529200420231779
167,192.996,0.003719480250207949,-0.016401066908660465,0.07059308015048078,0.8334640107524126,-0.9644305805407248,0.46376301149233595,0.7866059935597045,-0.8543780642490897,0.028238362969395803
168,193.003,0.009722664029528295,-0.02335652234107271,0.07384126214938708,0.8817313547734247,-1.0228424001551362,0.4642889881982806,0.6196509566052643,-0.8474356354811002,-0.012914163692187813
169,193.01,0.016022073997844336,-0.030716925254182258,0.07708303629373973,0.9181000647441582,-1.0801298607318033,0.4619321959018178,0.4399422777439499,-0.8216201459566052,-0.05575038817418204
170,193.016,0.021592999637159577,-0.03733896123393216,0.07984111833766049,0.9388751483608521,-1.1272154658514153,0.4574284854050662,0.26621404191985226,-0.7788450186548305,-0.09733316556236139
171,193.023,0.028210835736950945,-0.045409781830490756,0.08301526364522548,0.9519351658639019,-1.1787332760208202,0.4494701738985685,0.11428628921231612,-0.7221134466829956,-0.13453024218331533
172,193.03,0.034887514263486526,-0.05382635243285306,0.08612564320375292,0.9556872702877584,-1.2260011817952623,0.43920969996577935,-0.004969668818318211,-0.6550251210792085,-0.16440608987654348
173,193.037,0.04156629726824862,-0.06255685716846568,0.08915817862786879,0.9525364453571907,-1.2684287426637049,0.42722899263813785,-0.08682882449461334,-0.581091213053019,-0.18464881026433586
174,193.043,0.04726212365753921,-0.07026312120414462,0.09168813019634939,0.9460723510729319,-1.3003259358958421,0.41608819685536425,-0.13288923363460223,-0.5031116231902786,-0.19403285924132807
175,193.05,0.05385061583542659,-0.07947664057273589,0.09455427367473936,0.9363539854649745,-1.332108169414069,0.4028099398268978,-0.1502529084818031,-0.42285577118581646,-0.19282582567312004
176,193.057,0.060369049583431506,-0.08889316732450817,0.09732880201775412,0.9260556568283754,-1.358328045387012,0.3899124438942585,-0.14978631087105723,-0.3410537325847437,-0.18293948030897106
177,193.064,0.06681617206116189,-0.09847337887924038,0.10001607013858703,0.9159793368075619,-1.3788752559630917,0.37787844777173774,-0.14378474319666382,-0.2575840890119713,-0.16766797549214857
178,193.07,0.07228668072085047,-0.1067845161989529,0.10225521215161305,0.9075235497552272,-1.3915038506076463,0.36850222323690646,-0.1436320284951434,-0.17166866786062676,-0.15103496366413569
179,193.077,0.07860328293965972,-0.116555093388902,0.10479987410139514,0.8972199413318429,-1.4000896322329583,0.358544048128887,-0.1565610161189543,-0.07847592426544434,-0.13909396803053284
180,193.084,0.08484193587154178,-0.1263608118029271,0.10727523331145314,0.8852523249189008,-1.401544200343639,0.3487014404586078,-0.1921124835087342,0.03609744754142552,-0.1476679353796798
181,193.091,0.09098023485988886,-0.1361446065176778,0.109673144633811,0.8685473860361553,-1.3938257181545615,0.33641608021457753,-0.29458171693494595,0.18877859325223276,-0.2102629509946975
182,193.097,0.09611623064572837,-0.14445684900800276,0.111640612653889,0.8434512092436146,-1.3769217786203276,0.31940659314472775,-0.5584508950354953,0.385795446956309,-0.367898706990755
183,193.104,0.10182498552588815,-0.15397441175354967,0.11375534306467314,0.7876216136580146,-1.3423818629625592,0.2848020956503077,-1.0681303558958368,0.6205163242177356,-0.6402946397803605
184,193.111,0.10699160249090355,-0.16319154968773522,0.11555156266114841,0.6885546620656089,-1.2910861182421223,0.22840350334434295,-1.8181604072302693,0.8739723200217366,-1.0028641877544078
185,193.118,0.11126861625327712,-0.17199049227624413,0.11686319812386714,0.5334492700402553,-1.2228974784729154,0.14634948600359793,-2.7007962490107995,1.1126865803646104,-1.3877590071675923
186,193.124,0.11391784698714799,-0.17911555816567604,0.11746817798550384,0.34962764125000023,-1.1521244846709575,0.0553104678752928,-3.5474002567700795,1.2929257269967258,-1.706706419466433
187,193.131,0.11543699364190588,-0.1868603858227104,0.11742424418153372,0.08441426010908604,-1.0606834173372741,-0.067862983295318,-4.179525018883969,1.371186812777464,-1.881921156734346
188,193.138,0.11499037613450637,-0.19396209338837392,0.11649847836595857,-0.21201926222314127,-0.9683758871365684,-0.19664153544024676,-4.4569912323192025,1.3181699050951687,-1.8700096291489006
189,193.145,0.11245249428146986,-0.2004460030839442,0.11469656170865349,-0.5130898386439159,-0.8841697401679016,-0.3181917952179829,-4.314624425585222,1.135155046227415,-1.6713266733353256
190,193.151,0.10865983549084789,-0.2055748265979164,0.1125229139359677,-0.7511297582300259,-0.8254380978227703,-0.40635746234391845,-3.7764810856784288,0.8611652175775567,-1.3254719998756146
191,193.158,0.10259463415778813,-0.2111822830572601,0.10941150118687927,-0.9817849083642718,-0.7766923191379396,-0.48261760882717686,-2.943598805736875,0.5590308064030772,-0.8963482222189719
192,193.165,0.09513293461473511,-0.2165172380820723,0.10587113520021794,-1.1501292467922122,-0.7475805450930204,-0.5289155302181947,-1.9610712302028772,0.2891334216578614,-0.45253009405430705
193,193.172,0.08672910195425575,-0.22170481103166328,0.10210821592270893,-1.2509657990573178,-0.7345831547890576,-0.5462042633550408,-0.976776404238577,0.08954228175195397,-0.05117280541649655
194,193.178,0.0791276206084539,-0.22610695754786503,0.09885027977953201,-1.2828613162098705,-0.7327990172781369,-0.5397744510372223,-0.10736946115383583,-0.028898483549695365,0.2697256009793118
195,193.185,0.07020398485220489,-0.23124906079493923,0.09516337976937207,-1.2667488998594538,-0.7363733390277294,-0.5136255518648621,0.5768006663755164,-0.07523848326334782,0.4921160115224532
196,193.192,0.06153214348694113,-0.236420769256827,0.09170098654623622,-1.2109200616427054,-0.741257650082008,-0.4756296547446751,1.0497585188044698,-0.06706469305869876,0.6148849119080722
197,193.199,0.05334041253048253,-0.24162026264752087,0.08852342539017777,-1.1295744973437938,-0.7443118901151786,-0.4322449612713771,1.3202240746063711,-0.021919823516961593,0.6491172403710147
198,193.205,0.0468047725369346,-0.24608399922532959,0.08604139089896036,-1.048972167172098,-0.7436003024876707,-0.3950998691343941,1.4194926880561334,0.046107071541104216,0.6134645157836227
199,193.212,0.039799386377340706,-0.25126857435698713,0.08341312433116232,-0.9525667355757107,-0.7377068779908642,-0.35583343595327216,1.3892553581809992,0.12559637158389683,0.530553156808905
200,193.219,0.03345103986262598,-0.2563927127202298,0.08103692397557653,-0.8612465543414862,-0.7263326543631315,-0.3230809513564703,1.2713351954348544,0.2057887782225985,0.4236822591523771
201,193.226,0.027707296096404415,-0.2614191781346167,0.07886388445513068,-0.7798230931492164,-0.7098003211749584,-0.2977874830561861,1.1009169044073557,0.27587659864372316,0.31323658965404294
202,193.232,0.023205373736942772,-0.26562484811736664,0.07712367856529437,-0.7208176933379411,-0.6920896730749696,-0.2822811468892308,0.9047085236193078,0.32611790168643146,0.21383215679028225
203,193.239,0.018352856940264888,-0.27038831542722125,0.07518944052791154,-0.6656156771404637,-0.6689009868825168,-0.2703582923626093,0.7035883593977708,0.34947864883027474,0.1335372165172763
204,193.246,0.013840161784731674,-0.27498747671981394,0.07332201377095697,-0.6237257958681045,-0.6451450967144622,-0.2631922096240309,0.5168628146912181,0.3426432471146072,0.07524480497027865
205,193.253,0.009579962606385304,-0.2794255013540714,0.07149340328271131,-0.5934739693777876,-0.6228619416490622,-0.25926792987647684,0.36451655515091064,0.3065708813586978,0.03908810025415467
206,193.259,0.006074730023547708,-0.28311384361012476,0.06994341780935434,-0.5749368915680335,-0.6065854770353483,-0.25739389457582595,0.2655687376437222,0.24667494719346927,0.02461137240473237
207,193.266,0.0021101528597193327,-0.28730967379518413,0.06814843593186018,-0.5577994409535498,-0.592223147266476,-0.25545807042214114,0.2337265835187097,0.17176792484779424,0.03178837830913293
208,193.273,-0.0017335305051596698,-0.2914236271090852,0.0663713339995928,-0.5403958061539518,-0.5831920852758508,-0.2522853387967471,0.27332394704941365,0.09134979893056847,0.06064836105771982
209,193.28,-0.005438034527706591,-0.2954934787832736,0.06462585324713563,-0.5180339145729834,-0.5796226787771476,-0.24642344761923318,0.3781841500349232,0.01264396328182738,0.11013636672567793
210,193.286,-0.008465745823925917,-0.29897544270882076,0.0631726621403735,-0.49120318416675374,-0.5810319630718677,-0.23797358796812793,0.5338068766741186,-0.06054629808253433,0.17707892939497988
211,193.293,-0.011753406264017122,-0.30306517312181086,0.06155882572017676,-0.4481283701443478,-0.5874624406387604,-0.2231225320877511,0.721167015600879,-0.12680405140737125,0.25560285520646636
212,193.3,-0.014693098232266928,-0.30721491854496874,0.06006818323623125,-0.39178362078356804,-0.5981791088340717,-0.20277532046780714,0.9204231112369444,-0.18542338595994326,0.3372080470145314
213,193.307,-0.017191230621947322,-0.3114527736830667,0.05873874792280975,-0.32196849055607535,-0.612636644912245,-0.17706334051103434,1.1136231803167116,-0.23579329800222895,0.4119040338361104
214,193.313,-0.01891125758422302,-0.3151739317518236,0.057754229743916786,-0.25137383020247,-0.6277493780066992,-0.15110938578660787,1.285927476757915,-0.2778966672918527,0.4702849136102815
215,193.32,-0.020345119563874914,-0.3196391072381713,0.05681369582330121,-0.15830102112634964,-0.64801504666316,-0.11761459153193618,1.425725449020696,-0.31253850116006165,0.5055775078704123
216,193.327,-0.021098771645754046,-0.3242536775006586,0.05611296737798477,-0.057028145124677576,-0.6704335997608342,-0.08259353570118874,1.5248343679431482,-0.340620414988183,0.5147521614493833
217,193.334,-0.021125065260137257,-0.32903112670742585,0.05565654076503994,0.04951568387233683,-0.6945518878859861,-0.04781406799724122,1.5792933412261627,-0.3620598544538994,0.49853889844867905
218,193.34,-0.020548263732085247,-0.33326350480009237,0.055454314692935956,0.14275149214499258,-0.7162408096694722,-0.019594622704084408,1.5898421696313412,-0.3751583183671043,0.4606552977738075
219,193.347,-0.01917047421553853,-0.3383675049391495,0.05542133906088265,0.2509026554395024,-0.7420449443458119,0.010173013546004295,1.5611148207616952,-0.37663866709891586,0.4066173109754285
220,193.354,-0.01704643944748121,-0.34365055060751315,0.055582551197403844,0.35596442114787025,-0.7673966751855821,0.035887596888588086,1.499833346576438,-0.3619776461681617,0.34257061886417506
221,193.361,-0.014204774812069833,-0.349104954014412,0.05590789389716336,0.4559397604009532,-0.791004298219302,0.05706746018587007,1.412923062985803,-0.32582452404429063,0.274499380934878
222,193.367,-0.01122916585779784,-0.3539029137095468,0.0562928686302605,0.5359298910230068,-0.8083156001589135,0.07125745084650498,1.3059847061317726,-0.26259598447495747,0.20782607035359685
223,193.374,-0.007178758473788048,-0.35961272826001645,0.05683431657130908,0.6213293615503924,-0.823059985688394,0.08344196088155081,1.1821074274809034,-0.16697798623355004,0.14716657050124957
224,193.381,-0.002562364200248965,-0.3653982945424401,0.05744761513454577,0.6976404308884031,-0.8299589521457551,0.09178620004309279,1.0411964191932892,-0.03402166946236367,0.09594074258399689
225,193.388,0.0025518954221183787,-0.37119519665337214,0.058108342956805975,0.7635766040726508,-0.8262987938336471,0.09699317774540203,0.8798374327395652,0.14065946297435628,0.05576324552044597
226,193.394,0.007272030216945575,-0.3761087962120534,0.05869752888405569,0.8098016608696884,-0.8115677257267075,0.09940213133782762,0.6913772293192038,0.3600575031299027,0.026118388963144223
227,193.401,0.013079805051717245,-0.3816714500451953,0.05939705041630352,0.8495625776353172,-0.7777619408841281,0.10046116358998033,0.4670470983593267,0.6248655510528711,0.004736249825023781
228,193.408,0.019106686316822146,-0.3869284190112315,0.0600994387955331,0.8724034981147014,-0.7242291922740856,0.10022123047628628,0.1984173854191194,0.9347976398932623,-0.01172664085544995
229,193.415,0.025222741638077535,-0.39173012026489584,0.0607955219515256,0.8750408793855897,-0.6476854516290359,0.09865967123571266,-0.12157794422691297,1.2952850268975646,-0.03376899557704389
230,193.421,0.030417105698269855,-0.395349681978535,0.061376457887676476,0.8564138073451179,-0.5588351195839723,0.09498564081457306,-0.5115663011056294,1.7247857769297794,-0.09111328400329097
231,193.428,0.03622683020739258,-0.3987855470229528,0.06200390761528941,0.8035074809744742,-0.4228406073918475,0.0842857099318508,-1.0298462351574715,2.2373801933055075,-0.2206265159637754
232,193.435,0.0415166966737827,-0.40114148684766326,0.06251583577250903,0.7078829379930531,-0.2502850568106488,0.06197947784508211,-1.75615081731939,2.789982451461794,-0.4292599557308039
233,193.442,0.04593769676839868,-0.40216697266177615,0.06281617865002084,0.5552599461820379,-0.042710890078531294,0.023832772872516346,-2.6904817319028544,3.257638783165996,-0.6821347166172895
234,193.448,0.04870692677728773,-0.40182723210001775,0.06281750692215582,0.3678167234476106,0.15595774399799123,-0.02339001549419089,-3.680814709267852,3.4952154561007256,-0.9229933807012121
235,193.455,0.05030088674521011,-0.39990389510569374,0.06241149353236197,0.08760041024417253,0.3935671115227606,-0.09261381016111012,-4.483217225424797,3.427473813049714,-1.0938244977462777
236,193.462,0.04978869362211419,-0.39636710333250136,0.06149367376970683,-0.23394130255778323,0.6169448236784496,-0.16962040774123516,-4.88481985154503,3.0805797499170025,-1.1497433896532403
237,193.469,0.046990159211847134,-0.3913724988238006,0.06003920302369655,-0.5656399575179472,0.8100850359493212,-0.24594266254711988,-4.779137185186658,2.5465118452391584,-1.073886342819264
238,193.475,0.042805841974196096,-0.386117324940506,0.058390859516048256,-0.8291324550323457,0.9416395918154759,-0.3035051733356239,-4.1771152052622895,1.9250986050216221,-0.8826945075391426
239,193.482,0.0361173419733074,-0.3791397373067653,0.05608614097738873,-1.0818675452202031,1.0519568749661563,-0.35498583770948444,-3.186258196246655,1.2889677435596705,-0.6171817243712387
240,193.489,0.02792419452298388,-0.37153925671017846,0.05348780418407314,-1.2590317262991284,1.1196090097713953,-0.38739610323729795,-1.9753757410393051,0.6820602193952237,-0.3270832249318322
241,193.496,0.018786094184137164,-0.3636042340228732,0.05072996867899058,-1.3518540847980682,1.1475403294570579,-0.40055689821429885,-0.72898037005072,0.1317117672710403,-0.05635323260293144
242,193.502,0.010645765416091621,-0.35673760424249507,0.048336271766506365,-1.3615888378836767,1.1413362640022287,-0.39734207261374316,0.3980908516930012,-0.3425913049598873,0.16562689216236626
243,193.509,0.0013197130498632578,-0.3488766608661928,0.04561398076429508,-1.3029975524761994,1.1046475578059423,-0.3804553565920848,1.308951538861902,-0.7263249390876044,0.32636333958897
244,193.516,-0.0074076526883624875,-0.34135274022750484,0.04304134220442973,-1.1905355155865174,1.0450440532462149,-0.35458423194034483,1.9676016714480584,-1.0102082023356695,0.42738538199198284
245,193.523,-0.015218674616629216,-0.3343019578327149,0.0406681165370711,-1.0411850353452388,0.9694652024066239,-0.3234802444473507,2.3836870747794485,-1.1917626422162242,0.47882148471790814
246,193.529,-0.021026600190894883,-0.3287030314506907,0.03881311452054312,-0.8947901560765764,0.8968435916013785,-0.29485376106195293,2.592353988127077,-1.276685156139745,0.4942081562365011
247,193.536,-0.02666187722039296,-0.32273206873778115,0.03686699672681588,-0.7152889952074386,0.8091457549429817,-0.2611798942882903,2.637367268629731,-1.2783692976772114,0.4868714981274418
248,193.543,-0.031044507836062434,-0.3173676136947514,0.035153418345061006,-0.5368911806972304,0.7235556859215633,-0.22841392906989466,2.5602082689633665,-1.2152758752078723,0.467756672359559
249,193.55,-0.03420732872279827,-0.3125817823564575,0.033664099185220835,-0.3667719297980768,0.6438246964471562,-0.19710583088413605,2.3961733962195746,-1.1076664860426226,0.4443969081404442
250,193.556,-0.03600444066131125,-0.30890264843441445,0.032557839529413435,-0.23226538303956065,0.5825532775671562,-0.17164738771831756,2.1757768198246774,-0.9749821547605627,0.42094933363826464
251,193.563,-0.03713743229483905,-0.30504208158681895,0.031454812516088,-0.0914465122551788,0.520465821749537,-0.14350318751857652,1.9269456268198515,-0.8339202829534076,0.3990248733636953
252,193.57,-0.037344853676594444,-0.3015827460087619,0.03054371455720817,0.032183260325107294,0.4679157719803359,-0.1168105150183306,1.6749767590887703,-0.6971122239726829,0.3786594385274875
253,193.577,-0.036745325608414925,-0.2984598183541257,0.02981461746949408,0.13911047344034794,0.42434927220078866,-0.0915029386141182,1.4403207501134907,-0.5721868093950853,0.3586704463449297
254,193.583,-0.03567451312456454,-0.29600492838725423,0.029326949867858908,0.21782702117643515,0.39394738342300656,-0.07105292859760001,1.2352972484243798,-0.46118982033341377,0.33643644596853156
255,193.59,-0.033873768731049636,-0.29334613064974674,0.02890703423923682,0.29667137697031243,0.3657091130071598,-0.04892296529433932,1.0618132631401753,-0.3615250987943963,0.30831447897219383
256,193.597,-0.03155984317935189,-0.29086184846784713,0.02863420821264881,0.3644502092285714,0.3440857961065083,-0.0290273280164654,0.9129059983000728,-0.2684648104038393,0.27133991816385183
257,193.604,-0.0288055571421531,-0.2885067341776992,0.028490647566721594,0.42248865854194967,0.32880400107813695,-0.011989999391281501,0.7780296514401333,-0.17676645113400785,0.22503837397673573
258,193.61,-0.026144734258083786,-0.28655661784921405,0.028453751099532132,0.46445230281445543,0.3212347750835406,-0.0003088230052053307,0.6483372959035627,-0.08051563107877825,0.17201112427447574
259,193.617,-0.022753171349840583,-0.2843140232678803,0.028486536286469823,0.5045656709725589,0.3195065338711072,0.009676019273148902,0.5203556146137959,0.030163757242753688,0.11889474873407724
260,193.624,-0.01911134518059787,-0.28205252509779605,0.02857742908221105,0.5359560916674728,0.3266358004382146,0.016293350938610906,0.39419641152273927,0.17754563433197998,0.07389954800646623
261,193.631,-0.015281817768535134,-0.27969713021638304,0.02870438176845933,0.5581945974925263,0.346334165679305,0.019978845132300745,0.2537168725399747,0.3963612915390589,0.03347640005464405
262,193.637,-0.011906508943526923,-0.27752181617115124,0.028825190444497658,0.5669083441768351,0.37877051606460094,0.02029071354714112,0.042468086452424836,0.7061677877182041,-0.02287582409036261
263,193.644,-0.00797088250489315,-0.2746565718286409,0.02895095563321031,0.557556352574868,0.4398707246520484,0.01564219751359105,-0.3149360138853506,1.0739714497934785,-0.11255752350093651
264,193.651,-0.004206978819686298,-0.2712785360734999,0.029019047712078205,0.5178447003406068,0.5252823482446929,0.003812682162936001,-0.8420530040400307,1.414474760324391,-0.23209243634836688
265,193.658,-0.0008584945870819182,-0.267235162678345,0.028974697589745843,0.4388650804067026,0.6299671932319968,-0.016484145686509945,-1.4589983942944373,1.6354919164468134,-0.35925054737081075
266,193.664,0.0014689047423180899,-0.26316232729855515,0.02880336112857281,0.3369346960599374,0.727644600031239,-0.04062800803783118,-2.005670456154367,1.684615928713987,-0.461412382080814
267,193.671,0.003307366026076136,-0.25767858092514917,0.028402604606213078,0.18833995644198606,0.8391400780836414,-0.07387385549343967,-2.3235999767470727,1.5637768325339636,-0.507197036909207
268,193.678,0.004066616580547067,-0.2514589301184593,0.027766840110394903,0.028588773406696355,0.9379030095407527,-0.10777314331162344,-2.330710634206443,1.313656380265241,-0.48045020299314894
269,193.685,0.003741454872516704,-0.2446170736069373,0.02690828682919021,-0.12149211855816239,1.0169131366070014,-0.13752779417525632,-2.0418584742120136,0.9882838357016861,-0.3864440797817791
270,193.691,0.002696011068840788,-0.23837197198532617,0.02602716854349863,-0.22698914933379627,1.0647874039299634,-0.15617830105525823,-1.5440426158860279,0.6389883834203754,-0.24749672841134204
271,193.698,0.0008068945889385666,-0.23080453445312346,0.024893012735241228,-0.312758416352167,1.0973376052692632,-0.1678662155894822,-0.9548234456512078,0.30935356061837,-0.09302772720123056
272,193.705,-0.0015429711995482626,-0.22308203931460566,0.023712807574709335,-0.35863180892930435,1.1090895771628204,-0.16933525884796113,-0.381686330210931,0.033037190076278825,0.050227520680206826
273,193.712,-0.004086791598251107,-0.21533474962018942,0.022553168366878776,-0.3681740192739399,1.1044217641063705,-0.16199022910473518,0.10367642746512756,-0.1690327515856493,0.1637680768625837
274,193.718,-0.006245191019660914,-0.20874883942631758,0.021616712701184107,-0.3512924545293021,1.0908816338508207,-0.15016165946014295,0.4701370815529768,-0.29120359332823514,0.2382913979017096
275,193.725,-0.008561452792540442,-0.20118898038000235,0.02062691744175904,-0.31049662343580436,1.0690780936662738,-0.1326369860896741,0.7184392152447077,-0.34403707599983324,0.27228556104105817
276,193.732,-0.01054419164685746,-0.19378912039400215,0.01976363244897322,-0.25600019208293867,1.0451676166179908,-0.11401586899181299,0.8693006304671821,-0.35258866989026244,0.2702360106285399
277,193.739,-0.012117186906634702,-0.18655744429804338,0.01902695989449749,-0.19342702499595216,1.0210255536544672,-0.09646200371538789,0.9537528831308594,-0.35078427349891994,0.24119144716540755
278,193.745,-0.013104727097203553,-0.18049511879676383,0.018486887380017813,-0.1357530385269857,0.9997496134386431,-0.08356216777783093,1.006617085851558,-0.3723964326485512,0.19728094784398134
279,193.752,-0.01380661594833382,-0.1735947482165322,0.017943861346008574,-0.06478663322437622,0.9717848380547026,-0.07158812765326894,1.0609713159707848,-0.4423502773877285,0.15157970500902984
280,193.759,-0.013995504647229326,-0.16691405651988922,0.01747481882686176,0.010818433539765596,0.936984218135393,-0.062424020674840826,1.1417633229701314,-0.571557046998597,0.11541425108807266
281,193.766,-0.01363126738426306,-0.16051449502577525,0.017063240728471374,0.09324935587909337,0.8914619230387242,-0.05516972172232814,1.2598409044606391,-0.7547235919158497,0.09593792764509021
282,193.772,-0.012836211624122008,-0.1553179476227036,0.01674906636495371,0.17176923083458034,0.8407205446517626,-0.04955506611688934,1.409092079976248,-0.9700032817518385,0.09490725072668076
283,193.779,-0.011275793930414448,-0.1496908598172336,0.016426793451041477,0.2740643959386894,0.7670188283385194,-0.04252290928653973,1.5712518733334515,-1.1772777196441673,0.1099728730477723
284,193.786,-0.008962175052797457,-0.1446199802009509,0.01615863491390532,0.3869695690942644,0.6818039191697866,-0.03409381560945028,1.718212000830488,-1.3054372651197281,0.13560665504456226
285,193.793,-0.005833132822621466,-0.14015467811619522,0.015955330283137645,0.5070424966696655,0.5939966764737793,-0.023993221752701466,1.7800825988344722,-1.252804706135768,0.1586716111389997
286,193.799,-0.0024907234638517845,-0.136785373019675,0.015839318076651454,0.6070939562535194,0.5291050223662518,-0.014677513742694657,1.62072058349079,-0.9528976865442004,0.15797433863339816
287,193.806,0.00208825868930614,-0.13325023088297652,0.015769387973378582,0.701186658933524,0.4809355881183063,-0.00530251576382639,1.1206466863847526,-0.45050668695777685,0.11516387381461468
288,193.813,0.007167499528602463,-0.1299229983145335,0.015749065219352508,0.750025009441709,0.46970228858287894,-0.0005039853864996667,0.302246394428438,0.1232273251991769,0.024640104020914648
289,193.82,0.012374205309615298,-0.1265441748577916,0.015736175072931267,0.7376052137037522,0.4956758419141129,-0.0031789135909949385,-0.6640940251672861,0.6335056302433149,-0.10257346569730946
290,193.826,0.016603791942990782,-0.12342748448267027,0.01568692927939616,0.6722569974213561,0.543220949792958,-0.013236350920705846,-1.5571271625775474,0.9825782814847218,-0.23928426450653265
291,193.833,0.020859045527960397,-0.11937235221603967,0.015523292531548752,0.5435297411405228,0.6153882692435285,-0.03351700560709173,-2.1933091311835047,1.1199984525396076,-0.3515875181648875
292,193.84,0.024103265177076783,-0.11480387348375096,0.01519693227708527,0.3833901586063537,0.689891368552316,-0.059728781382408044,-2.4723174016591396,1.0506306412381343,-0.4120859883783425
293,193.847,0.026203345358429192,-0.10974928791112624,0.014680425654556996,0.21663275035104848,0.7542759379108551,-0.0878445393398502,-2.386117822112079,0.8251976227749329,-0.4070595610315572
294,193.853,0.02711605289560832,-0.10510534191552248,0.014087621972495745,0.08760309537531527,0.7937060606236741,-0.10975668801389228,-1.9996698823445336,0.5150535575573764,-0.33774621443853203
295,193.86,0.02731844460479379,-0.0994646936152757,0.013252503644244545,-0.029776892750936285,0.8179077394456838,-0.1288485486291369,-1.4201666025528923,0.1900562789017736,-0.21849035142620427
296,193.867,0.026847105242851957,-0.0937278758333975,0.012315647517797807,-0.10489149637575153,0.8211830553821393,-0.1388246303565408,-0.7682785159582801,-0.09463077138634919,-0.07216028512981477
297,193.874,0.026001992522659445,-0.08802757292880704,0.011344307430021567,-0.13656928082193692,0.8074749173568293,-0.13870110900790114,-0.1546457809266404,-0.3047523884461614,0.07575904861143361
298,193.88,0.02519870119456669,-0.08324733038969899,0.010536667956157299,-0.1311944952089717,0.7859392623457953,-0.13051204894684448,0.3373376486206716,-0.4272561639488379,0.20259152849887266
299,193.887,0.0244002241252814,-0.07785310203196527,0.009682570690331755,-0.09694181030094776,0.7552688398627387,-0.11351574128885097,0.6606057267710841,-0.4663188950463941,0.29259162806125627
300,193.894,0.023897715863435524,-0.07267479577742755,0.008963837403002004,-0.046631978797771506,0.7242472328612642,-0.09183662651950242,0.8051585833986274,-0.4374878367253368,0.3390239380329776
301,193.901,0.023763173669762532,-0.06770111717532055,0.008403003756763606,0.008191352034086531,0.6968037963111494,-0.06840155811992538,0.7921053965630418,-0.3620697972736094,0.34375089623211785
302,193.907,0.023940812203484374,-0.06357543885583977,0.008050730194756444,0.05102149253985901,0.6784223101823916,-0.04902296254912414,0.6637142260321993,-0.26272685019714154,0.31493804004413367
303,193.914,0.024434353611006383,-0.05887728582781845,0.007777126798633412,0.08999033818118671,0.6639071263996206,-0.02914943634343244,0.4716333083000594,-0.1601693851655866,0.26407215655739086
304,193.921,0.025152816769927068,-0.0542576797513336,0.007629211688145872,0.11528485008171965,0.6559803240236778,-0.01311202379583433,0.2653159455376027,-0.07077601197198566,0.20317383169945963
305,193.928,0.02600170693694005,-0.04967494936368504,0.007578967944276995,0.12725519763610132,0.6533712153035457,-0.0012433315952632574,0.08343712521025377,-0.005239715551981118,0.1426175358364935
306,193.934,0.026768169868189345,-0.04575239277647959,0.007592018797952177,0.1282324461136539,0.6541476470982222,0.005593616153657123,-0.05021992132130997,0.031631051862086236,0.08977401305873307
307,193.941,0.027644524486935614,-0.04116473629189825,0.007647792140568739,0.12215458781367211,0.6566113484955108,0.010341624593920615,-0.1268569543549603,0.040148269816481376,0.048558020823817424
308,193.948,0.028466376466507157,-0.03656068462683003,0.007728394643782137,0.11266026349231592,0.6588319843801833,0.012687662038462274,-0.1497578011236296,0.02454939917550268,0.019793191131917652
309,193.955,0.0292214131950568,-0.031946905331244106,0.007819841025354154,0.10306451609314148,0.6593906715005675,0.013439875553523604,-0.12981189026414122,-0.008272190185863702,0.00212236078032825
310,193.961,0.029821179590326367,-0.027995711969081464,0.00790005584935256,0.09685761566337417,0.657673782553597,0.013298399112610592,-0.08116400975496384,-0.05008579298441737,-0.006931221465441799
311,193.968,0.030487272030692535,-0.023409142188513477,0.007991099040746878,0.0934545101561676,0.6527747261844983,0.01271394128585298,-0.017984614821739665,-0.09264698438356612,-0.010096810584517524
312,193.975,0.031145009336184012,-0.018866338273160078,0.008077702021343357,0.09447043426983431,0.6451692496298314,0.012029767455980339,0.04758330881775232,-0.128936665622487,-0.009836422181649245
313,193.982,0.03182480297209906,-0.014384164043507017,0.008159748689981174,0.0997563188486117,0.6354519588415566,0.011412137869093713,0.1064196113224037,-0.15417416189230593,-0.008158060771570816
314,193.988,0.032446189509440684,-0.01059973961401346,0.008226913099408768,0.1073725269319211,0.6260228509895813,0.010975998606770372,0.15245941747639158,-0.1663263097935706,-0.0066665484586734
315,193.995,0.033237996545526775,-0.0062575039712806525,0.008302141057711097,0.1188580548068003,0.6146159040760486,0.010517703765308053,0.18216855362691903,-0.16601222472927488,-0.006685756688839225
316,194.002,0.034115200623872084,-0.0019938724205100606,0.008373846537611222,0.13177168186310842,0.6035645390003928,0.009969576206141714,0.19406672859189308,-0.1559665222186175,-0.00928380213577605
317,194.009,0.035083574793248064,0.002195498587528712,0.008440695752407891,0.14490665224523935,0.5933986061575469,0.009130199450113188,0.18861733585635285,-0.14021537892222224,-0.015171228919137388
318,194.015,0.03598450650978209,0.005732649961995517,0.008491969622740894,0.15540391993275846,0.5856518519980104,0.00796109066088692,0.16819046590805203,-0.12310098155888882,-0.02456741065116179
319,194.022,0.03710895389808693,0.009804405706516053,0.008540287414599881,0.16586676243982265,0.5777069321498829,0.005843992727385217,0.13664182375710182,-0.10837226358225346,-0.03711370612747282
320,194.029,0.038298280983427385,0.013823494024734321,0.008570506646938458,0.17394097622863547,0.5706040159116591,0.0027900736550590605,0.09859836788565508,-0.09856941777591344,-0.0518614593345635
321,194.036,0.03953477833568254,0.01779449292799677,0.008575715957466553,0.17934398155829898,0.5639670993053726,-0.001301699218461485,0.05881683592749073,-0.09479548129859998,-0.0673513160639852
322,194.042,0.0406179412717887,0.021161385108187984,0.00855474256746563,0.18171033047707444,0.5583302940916574,-0.0056894307818456825,0.021616642673777213,-0.0968025742288565,-0.08179005104860446
323,194.049,0.0418913360106244,0.025045660561302332,0.00849387935640329,0.18211673776143578,0.5514626925116488,-0.011700058093096453,-0.00977606847562638,-0.10328327363978707,-0.09332806664985169
324,194.056,0.04316092347179612,0.028879996436909142,0.008388706243645292,0.1806225368587978,0.5440618433752283,-0.018349402694881303,-0.03375709969194792,-0.11233860790896368,-0.10039891895336064
325,194.063,0.04441517994495152,0.03266027128703857,0.008235943849289133,0.17773645547251576,0.536016685236794,-0.025296995692738935,-0.05032815692449426,-0.12205505465561495,-0.10201745879266964
326,194.069,0.04547181367279056,0.035854040757636714,0.008066513036334714,0.17447478714048525,0.5285731382958805,-0.031179941958732114,-0.060537712393107436,-0.13095512860143427,-0.09794706412436303
327,194.076,0.046677962366978354,0.0395217259851142,0.007825830798893913,0.17013912548435192,0.5193369266969381,-0.037586411595733185,-0.06578070145668502,-0.13813957751083975,-0.0887038203555268
328,194.083,0.04785294943416775,0.04312328627819832,0.0075430097163329355,0.1655714651409506,0.509680299897791,-0.04321961199305996,-0.06729693590158112,-0.14320381991088804,-0.07541805896172213
329,194.09,0.048995939069879244,0.04665629227536183,0.00722425172056228,0.16099700220495627,0.49974998500534806,-0.04785410108420501,-0.06597889328403878,-0.14611341139748193,-0.059606617184180005
330,194.096,0.0499505881316757,0.04962891279876446,0.006928079930572861,0.157219351727185,0.49112352279549176,-0.05086982891226417,-0.06242548802086228,-0.14710470113690283,-0.042899601489170915
331,194.103,0.05103676126443325,0.05303149687484249,0.006563621987655089,0.15311582906046475,0.4810433560832503,-0.05326101192131055,-0.057129614652683104,-0.14657842531983184,-0.026766915154263448
332,194.11,0.05209561853546723,0.056363773765496374,0.00618610048665914,0.14941481980616866,0.4710357555314649,-0.054602274077454875,-0.05069836080401353,-0.14499050427031573,-0.012310421030682979
333,194.117,0.05313015281015845,0.05962645218437114,0.005802385596682895,0.14616640153516913,0.46115807843587303,-0.05503055163041054,-0.043943489981216416,-0.14279313804309596,-0.00016733795231329505
334,194.123,0.053999942161426465,0.062368403181135804,0.005473024224937953,0.1437633822208265,0.4528255871523141,-0.05475657228456617,-0.037736435183256804,-0.14043274383497126,0.009480043984932508
335,194.13,0.054997812219837176,0.0655046929069972,0.005092886910752267,0.14134234875345936,0.44325719166458727,-0.05385408891126647,-0.03279976706916201,-0.13834005647968373,0.016813582520669175
336,194.137,0.0559797029834802,0.06857443129063448,0.004720599390720982,0.13919786943006093,0.4338109179454359,-0.05251377395473871,-0.029679099629802058,-0.13687475676714725,0.02223615724125048
337,194.144,0.05694705757063017,0.0715782939462343,0.004358824965172379,0.13718915546973376,0.42443555508247083,-0.050850347630502495,-0.028844277301033536,-0.13627408648741932,0.02622735109922783
338,194.15,0.05776493874436537,0.07410081874711658,0.004058618271803844,0.13543790244198928,0.4164060452115876,-0.04921855015900555,-0.030681759546222164,-0.13665329343276827,0.029238326833497447
339,194.157,0.05870507174363332,0.07698266265105622,0.0037213994304734262,0.1331715259200908,0.4069779273420082,-0.04712969022104497,-0.035348551427799746,-0.13803255369494954,0.031620083034415436
340,194.164,0.059627892948281594,0.07979806872418362,0.0033993227790460106,0.13049167540886986,0.39742380783994147,-0.04489221018709598,-0.042728220419580853,-0.1403243193627273,0.033568336018150874
341,194.171,0.06052988410728206,0.08254596450773605,0.0030933255438107443,0.1272200843053642,0.38768927317447893,-0.042535571308631934,-0.05258876502261059,-0.14328890418472198,0.03509174605334034
342,194.177,0.061282850937980665,0.08484651772676377,0.0028443883671636075,0.1237688592608288,0.37916179983473475,-0.040443487573743844,-0.06472023939565867,-0.14656452315773988,0.036019310725750424
343,194.184,0.06213197994924622,0.08746504951128917,0.0025699424301106723,0.1188394296720131,0.36899013860055657,-0.03796963729846734,-0.07889745410276729,-0.14978427322520677,0.036055695965036924
344,194.191,0.06294299534183322,0.09001164558182365,0.002312677519131213,0.11287925392410739,0.35860873869448917,-0.03553462298132574,-0.09475076996388854,-0.15267520670670542,0.034887834835560086
345,194.198,0.06370836155246706,0.09248493397666452,0.0020720094006668795,0.10579680625683573,0.34804508840239595,-0.03322769657986319,-0.11159456471838176,-0.1550940924666885,0.032323886699197245
346,194.204,0.06432197515940027,0.09454565755773907,0.0018780038894519093,0.09874106272089314,0.3388627719557616,-0.03144080715845777,-0.12823397122210498,-0.15701780597753165,0.028413450427662457
347,194.211,0.06498058428832612,0.09687979450251281,0.0016641535324996481,0.08943297411492923,0.3280334979791177,-0.029659294827858892,-0.14295485344445896,-0.15849037255835063,0.02349046406177961
348,194.218,0.06557095557309146,0.09913782480377714,0.001461535935175486,0.07924453581858855,0.31711801666999306,-0.028231447264952574,-0.15388273843378614,-0.1595294349676252,0.01810951621140514
349,194.225,0.0660880127441236,0.10131925957330669,0.0012676407939280518,0.06848608447620105,0.30614906033800343,-0.027167164519989018,-0.15956204043360928,-0.16004835392291034,0.012898094366629559
350,194.231,0.06647077722388671,0.10312791766496254,0.0011065163166623776,0.059102075444830086,0.2967369702139232,-0.026540994568566987,-0.15940549796705464,-0.15987367599487987,0.008385760684857888
351,194.238,0.06684686503262009,0.10516678624398283,0.0009223217227134657,0.048351584193202915,0.2857969095057425,-0.026086032273941667,-0.15380736565448166,-0.1588622461504535,0.004869451547220651
352,194.245,0.06714955193081498,0.10712941632469225,0.0007405860468805487,0.0381303867195614,0.2749545421251187,-0.025838446535426083,-0.1439846566287711,-0.15702740542317997,0.0023438967861014607
353,194.252,0.06738334438415057,0.10901666489105723,0.0005600597799703391,0.028667457090557673,0.2642593339787769,-0.025740486867454095,-0.13171542237001221,-0.154574798805123,0.0005101335467242571
354,194.258,0.06753321497924863,0.11057517720167356,0.00040556121572844805,0.02128940794212829,0.2552447695599824,-0.025759034546507627,-0.1190684555233597,-0.15183511755415643,-0.001140579181524244
355,194.265,0.06765494890140124,0.11232573123916617,0.00022472625782889885,0.01349171267301693,0.24491352686814988,-0.02590809628210786,-0.10811543847094726,-0.14916304453460316,-0.003202297062095653
356,194.272,0.06772432218443303,0.11400456401992368,4.2238232939875204e-05,0.006329225336053617,0.23475298191936644,-0.026231339400433068,-0.10056183189320636,-0.1468618816641989,-0.006215310037604986
357,194.279,0.06774485282658224,0.11561275485158234,-0.00014339125948642414,-0.00046332757913814665,0.22473011283992583,-0.02680565843561455,-0.09733749196755315,-0.14515189264589942,-0.010517330865137326
358,194.285,0.06772480018083381,0.11693560020352209,-0.0003065763369225759,-0.006220887670340946,0.21621833780664051,-0.02758936737643397,-0.09836508710557856,-0.14416794077614878,-0.016121359575172422
359,194.292,0.06765710094731607,0.11841451727162623,-0.0005043628326859541,-0.013121750477570564,0.20632939593709682,-0.028921059984490845,-0.10268981826766126,-0.14394389789707296,-0.022677170228755743
360,194.299,0.06753983139510289,0.1198241859976849,-0.000713081432178668,-0.020383835869027332,0.19643309722223615,-0.030712825584813377,-0.10888921640929129,-0.14438228061746533,-0.02952547069992168
361,194.306,0.06737018996907584,0.12116442223359351,-0.0009359204654325111,-0.028085142995808148,0.18649154160852133,-0.03295546963052487,-0.11548643325628731,-0.14526244628309182,-0.035813400538615155
362,194.312,0.06718079042052254,0.12225763866345171,-0.0011404028363696662,-0.03504803985529325,0.1779139350108642,-0.035205320681857596,-0.12118619397403904,-0.14629503758947818,-0.04066025258902936
363,194.319,0.066905884733362,0.12346778073633272,-0.0013969329241561672,-0.0434964421908393,0.1678409429562952,-0.03808899011453077,-0.12495588703583892,-0.14717905701841358,-0.0433547323645575
364,194.326,0.06657125716296247,0.12460724992711218,-0.00167399208800439,-0.0521114350660979,0.15772168298046363,-0.041070770984904886,-0.1260397675237115,-0.14764304185835025,-0.04351870469446395
365,194.333,0.06617644245382329,0.12567584834584067,-0.0019716621314515115,-0.060692767545017866,0.14759215094174605,-0.04397781285706902,-0.12397519983921731,-0.1474783309917154,-0.04117723041551759
366,194.339,0.06579087245440013,0.12653544817719,-0.002242404487612484,-0.06783056559602839,0.13894112617468757,-0.0462696391965851,-0.11864241341336303,-0.14657467613637848,-0.036723185442293006
367,194.346,0.06528855213138442,0.1274730144710523,-0.002574405839946621,-0.07568952669407308,0.12893495778577407,-0.048587890041671994,-0.1103264451247302,-0.14495252774805112,-0.03081847091437001
368,194.353,0.06473348724667692,0.12834099511915759,-0.0029211403365818882,-0.08290044036509875,0.11905951310127098,-0.05047910899690502,-0.09976171432452155,-0.1427660738275862,-0.024281718541084716
369,194.36,0.06413061496015364,0.1291404109282398,-0.003279569495486487,-0.08934878435571503,0.10934500377920268,-0.05192922211862142,-0.08810916893506456,-0.1402637163675907,-0.017966963197920818
370,194.366,0.06357996996335813,0.12977194649650972,-0.0035938461116383916,-0.09419954790944832,0.10116685231076301,-0.05282964993200946,-0.07677090576707137,-0.1377160717843051,-0.012639064799679713
371,194.373,0.06290329500241035,0.13044731167732998,-0.003966237980850465,-0.09913615521913784,0.0917946279242417,-0.053568026986081776,-0.06705590882757416,-0.1353413327481197,-0.008873365295489927
372,194.38,0.06219409250825073,0.13105760666876315,-0.004343119689068441,-0.10349312882632081,0.08257536962797148,-0.054112461076119944,-0.05988342336551799,-0.13325944314706029,-0.006988585233350331
373,194.387,0.06145576088758974,0.13160383081611962,-0.004723590349391417,-0.10745876279095333,0.07348867247376528,-0.054593441873223965,-0.05565432659073424,-0.13147919715459205,-0.007024669536297224
374,194.393,0.060801308419305075,0.13202169155428062,-0.005052545381912039,-0.11069205997059323,0.06579824024656411,-0.05505823563364592,-0.05424719192441509,-0.12992275040823123,-0.008773921570143619
375,194.4,0.06001333126285787,0.13245123643884665,-0.005440429214521928,-0.11444427044273359,0.056928869629360425,-0.05576571654052893,-0.05507251815970958,-0.12848413579937415,-0.011838357033296821
376,194.407,0.059198737767001276,0.13281903842026976,-0.005834095842432385,-0.11829672837326966,0.0481574107771688,-0.056710462862378484,-0.057167876456868286,-0.12707011571611676,-0.015686589867862356
377,194.414,0.0583566656844392,0.13312578700892908,-0.006235320224787122,-0.12229529521669888,0.039485043125787905,-0.057925074953644184,-0.05932936465554302,-0.12559713854239754,-0.01970082847347501
378,194.42,0.05761233717203664,0.13334066919667098,-0.006586658728791535,-0.12581420891747935,0.032142352788177765,-0.05918775971448915,-0.06028041376965298,-0.12398487426217425,-0.02321850894364892
379,194.427,0.05671732364268848,0.1335360942969128,-0.007006837834682177,-0.12990394232466956,0.023693390138011486,-0.06086341339703699,-0.05887294228938502,-0.1221735313724933,-0.02560124041146499
380,194.434,0.05579439744934994,0.13367283662384413,-0.007439122385263135,-0.13378925577186723,0.015375846128056024,-0.0626464581974343,-0.054324689556494485,-0.12015602517330595,-0.02634732220081563
381,194.441,0.054845762968853184,0.13375185702613365,-0.007883840483064,-0.13724916722701355,0.007201411668936746,-0.06441585545986508,-0.04647896205145481,-0.1180040705376493,-0.025203622819131345
382,194.447,0.05401499069507003,0.13377442486635013,-0.008274521228748576,-0.13967492403402834,0.0003212017365549838,-0.06581105976832187,-0.03597382277702708,-0.1158579833537238,-0.02222012563920177
383,194.454,0.05303003919476843,0.13374907539086198,-0.008739997273692717,-0.14173979033765455,-0.007563909018879765,-0.06718209592990934,-0.024185538578342814,-0.1138727388873536,-0.017724668719334636
384,194.461,0.052033398431258884,0.13366897415021156,-0.009213869699698693,-0.1430147135220131,-0.01532215973836322,-0.06821002578598702,-0.012959028318540842,-0.1121619480554836,-0.012223809567686119
385,194.468,0.05103022860045757,0.13353493613435477,-0.009693561991746927,-0.14360523813646528,-0.02297441622084759,-0.06884491479968141,-0.004245758067786283,-0.11078462340396984,-0.00627352245253973
386,194.474,0.05016824809566057,0.13337762478752804,-0.010107218925985744,-0.1437215967958569,-0.0294626993880586,-0.06904072994658568,0.00029066435105312325,-0.10975562792925019,-0.0003823402156245886
387,194.481,0.04916219241284443,0.13314510209025657,-0.01058994430703321,-0.1437228840085489,-0.03697235697517151,-0.06888080749544892,-0.0003281669696702566,-0.10903636051321476,0.005041640679716133
388,194.488,0.04815536027468314,0.1328601595973867,-0.011070336281927868,-0.14394344118018598,-0.04443978384473053,-0.06837404247435543,-0.006097710853378994,-0.10852524657566838,0.00972283098253458
389,194.495,0.0471451083120203,0.13252306099854416,-0.011546161971804605,-0.14469997672327664,-0.05187410153878037,-0.06757615463318618,-0.015943762260422562,-0.10807173299707148,0.013523430953969623
390,194.501,0.04627304024715828,0.13219279273930318,-0.011948975849944601,-0.1459893782307163,-0.058215318208205996,-0.06669513808014123,-0.027883691812056462,-0.10746964859689387,0.016422797814091457
391,194.508,0.045243032448436624,0.13175959063380532,-0.012411646943137546,-0.148298564260975,-0.06555671193394814,-0.06549660283203389,-0.039393863440379574,-0.10642001448848798,0.018496225737900277
392,194.515,0.044194461312070506,0.131275349857948,-0.012865511874486852,-0.15129318898748903,-0.07279779545432327,-0.06417909183963025,-0.047853776143081665,-0.1045471359480411,0.019889126254531993
393,194.522,0.04312354437902424,0.13074101150710865,-0.013309880524818518,-0.15468307759693892,-0.07987030478538663,-0.06278337968361213,-0.05090977743528391,-0.10150864780389719,0.020774597006640607
394,194.528,0.042186826069141876,0.1302442601847238,-0.013682865693448265,-0.15755635903050566,-0.08571346934288865,-0.06154500985963223,-0.0467546113065945,-0.09710367334218858,0.021318262565855173
395,194.535,0.04107417174069122,0.12962163221359385,-0.01410851616783655,-0.16034487766945446,-0.09218023669410699,-0.06006941139407646,-0.03448817915983981,-0.09130396990321045,0.021672928267616187
396,194.542,0.03994585979788877,0.1289552786803709,-0.014523755326679173,-0.1620299631310155,-0.09820648708373853,-0.05857034827515957,-0.014606362708902247,-0.0842693222615736,0.02200189935054736
397,194.549,0.03881117350940074,0.128248532607002,-0.014928398851815643,-0.16216611929390368,-0.10372096245009206,-0.05704208747803493,0.010639487086221644,-0.07639353308511444,0.022523595291894277
398,194.555,0.0378424100952447,0.12761343198293373,-0.015266586333627413,-0.1607550187580985,-0.10797924557265418,-0.055687073125884175,0.03732458273052213,-0.06834781156577585,0.023534074831634152
399,194.562,0.03672886239508699,0.12684203017347684,-0.01565052338809983,-0.15740146700102017,-0.11242127141487038,-0.05400922815187076,0.060380305776648005,-0.06106949614198297,0.025349517250188344
400,194.569,0.03564324529559607,0.1260410647774903,-0.01602215464566736,-0.15277484714028106,-0.1164259845820457,-0.0521711311534928,0.07441510231755638,-0.055606816569689285,0.02820297732919285
401,194.576,0.034591757514170714,0.12521306386473016,-0.016380097827941916,-0.14765023326675003,-0.12014570477782671,-0.050098349496307225,0.0748892363135146,-0.052766297469642606,0.03218699586491799
402,194.582,0.03371772437033875,0.12448287591054373,-0.016674557411047147,-0.14369414801055944,-0.12325027995097229,-0.048054844872099656,0.059580239541829616,-0.05275989047919701,0.03727283068840685
403,194.589,0.03272258411531358,0.12360715391780285,-0.01700125367621899,-0.14063163913928603,-0.12695600368910295,-0.04528694517693153,0.029645187555998813,-0.05520544028041158,0.04336923202752429
404,194.596,0.03174047977538378,0.12270468997816636,-0.01730700481490314,-0.13996960084045612,-0.13089083620685169,-0.04207052301847627,-0.010356867929464457,-0.05943491725382527,0.05034042005121713
405,194.603,0.030753038043471653,0.12177353779001433,-0.017588492187957865,-0.14215660827709312,-0.13515264612210945,-0.03835444071138774,-0.05336104467169144,-0.0647318446666126,0.05792670501437974
406,194.609,0.02988734078732245,0.12095069448834009,-0.017807713104682744,-0.14640914377263076,-0.13912845443596247,-0.03471919819690225,-0.09118493503043194,-0.07040802857766122,0.0656371526565322
407,194.616,0.02883758038770083,0.11995922393266333,-0.018034122913767492,-0.15352239897618872,-0.14414884718576565,-0.029969318684408226,-0.11605796948706794,-0.07585985377912416,0.07274939444570767
408,194.623,0.02773432086321185,0.1189313744657604,-0.018225745203415102,-0.1616946080217177,-0.1495224290731954,-0.024779906929378356,-0.1220372893586079,-0.08069810543216113,0.07844281419543256
409,194.63,0.026575073225511593,0.1178648301795864,-0.01837992964034753,-0.16951900274954745,-0.15520450983344197,-0.019272789336998882,-0.10592448666142996,-0.08484789098696001,0.08200567425374773
410,194.636,0.025542677306887664,0.11691831144117074,-0.018480996261959166,-0.1746129701250828,-0.16030173630510308,-0.014416084533544638,-0.06722221737903082,-0.08840959149213766,0.08307634673724852
411,194.643,0.02431140356322302,0.11577459724533971,-0.018562102082432752,-0.17717952806456416,-0.1664737482178111,-0.00875700703032065,-0.007553803833383372,-0.09141042605291316,0.08179945556366669
412,194.65,0.023078587032743667,0.11458704641268305,-0.018604112669117597,-0.17505376635785597,-0.17282648968385153,-0.0032460177367696214,0.06948733746928111,-0.09367510165491445,0.07876183392712609
413,194.657,0.02188052559113532,0.11335461742707935,-0.018608397429087566,-0.16724950267285565,-0.1792960776312411,0.002021800602493888,0.1578879256719761,-0.09481471895180059,0.07471473086046324
414,194.663,0.020912924918415617,0.11226215068226508,-0.018583477600769664,-0.15528405490036576,-0.1848595039735002,0.006284808836806981,0.2488241106329611,-0.09428914907852842,0.07018722289244697
415,194.67,0.019895625182042513,0.11094583027136351,-0.018523219127728596,-0.1353730126357797,-0.19123204199963412,0.010931897746413347,0.33127910692575585,-0.09137314643829575,0.0652045458015927
416,194.677,0.01903513178772777,0.10958601255702477,-0.0184317481160416,-0.11048224288254307,-0.19728730495401553,0.015202677021281086,0.39390722081304025,-0.08504541951664571,0.05922353615925414
417,194.684,0.01836042365238203,0.10818586958920973,-0.01831205036557131,-0.08229151007324435,-0.20275354299285236,0.018996680255920682,0.4274227020826793,-0.07421205340319997,0.0513137955678869
418,194.69,0.01794207252436389,0.10695766036706518,-0.018189947794992712,-0.05715886593279739,-0.20664953105531406,0.02170417660360993,0.4268494547512382,-0.05821468635881718,0.040715468509351364
419,194.697,0.017640437422802753,0.10549964702531647,-0.01802983241823937,-0.029022591656036566,-0.20992570944401792,0.02404307389731248,0.3928938324712288,-0.03723594848595033,0.027427716944276773
420,194.704,0.017524365847036,0.10402415691055882,-0.017856754772033558,-0.004140715705868842,-0.21164289477215428,0.025407682161455582,0.3320333765480139,-0.012793814936541567,0.012329802235991658
421,194.711,0.017565999170954485,0.10254254758507608,-0.01767776779297285,0.01603595111114189,-0.21167405536546488,0.025731454712995448,0.2558087456561265,0.011885958873547205,-0.0028967702325002754
422,194.717,0.017700594084005986,0.10127642429246193,-0.01752503395499594,0.02882901990602319,-0.21036704217256932,0.025179824612639765,0.17903457647327273,0.032540125905506125,-0.01585343499747676
423,194.724,0.017937867137548857,0.09981320035555712,-0.017353555255408593,0.03896328110645207,-0.2076969398016353,0.023814089555337085,0.11622457931715768,0.04525263632196007,-0.0239369130187673
424,194.731,0.018233895171297983,0.09837045999472918,-0.017192759300652255,0.04561615710752376,-0.20451459186319287,0.022127611803583663,0.07760529271769144,0.04746427191130581,-0.02519819287518421
425,194.738,0.018570583052878304,0.09694918329799948,-0.01704316280865211,0.05058038048678497,-0.20156446434500314,0.020614243053569882,0.06702610913011199,0.03848695267864457,-0.01889342571344697
426,194.744,0.01888722942023723,0.0957449271201279,-0.016921630063392666,0.05496840863285284,-0.1998542616121727,0.019896672032910418,0.08212533898817881,0.01964376245956444,-0.005497201077537994
427,194.751,0.019295799897313216,0.0943475754423181,-0.016781372914923567,0.06176601338877415,-0.19938907490462787,0.020176798958232545,0.11592116898393211,-0.006090664523994127,0.01365862871875011
428,194.758,0.01976124619862197,0.09294696922225587,-0.01663406288199126,0.07121864412791737,-0.2007841308271523,0.021911781879539436,0.15947885444438167,-0.034553939539092166,0.03688966311254078
429,194.765,0.020303511008976757,0.09153008293868876,-0.01646872848407656,0.08371415883111173,-0.2040405216219468,0.025326617524818403,0.20457482933830437,-0.06032018872534055,0.06260071609196087
430,194.771,0.020845439354454164,0.09029374446200046,-0.01630334342132857,0.09692862299468394,-0.20807230394080722,0.029801736724508514,0.24459194910869178,-0.07672227119931152,0.08951100400579393
431,194.778,0.02158624461552315,0.08881873714622805,-0.016070001952853,0.11473002302487566,-0.21335835770815195,0.036867254268464454,0.274047371590717,-0.07728557820727754,0.11634107578411218
432,194.785,0.02245692013988587,0.0873089611685418,-0.015780991199256345,0.13403441250715212,-0.2180062073447574,0.04570724675909152,0.28838116945796405,-0.05812835407634369,0.14120988608129115
433,194.792,0.023463915908830506,0.0857735873080143,-0.01542465622465869,0.1536786643339669,-0.22067203851992626,0.05610274598302337,0.28394917567375016,-0.019539967934506516,0.16166037393685737
434,194.798,0.024433822542058677,0.08445084519377181,-0.015058293727220397,0.16962354674207814,-0.22024199956088958,0.06601808649640292,0.25802599451214875,0.034157224559234145,0.175367408686131
435,194.805,0.02567735970722227,0.08292476094131626,-0.014553383692072019,0.1856727861615517,-0.21578207256895826,0.07824192354588783,0.20956456668756446,0.09578162865125166,0.18077101486104402
436,194.812,0.02701911345777237,0.08144461392334552,-0.01396267353157086,0.19768542828105926,-0.2071170754223775,0.09053240802575108,0.14042074559685438,0.15667088779930705,0.17730916483784745
437,194.819,0.028426470018524636,0.0800386366562097,-0.01328778120670662,0.2044164462209334,-0.1945907151892038,0.10229397050753372,0.055685772207657754,0.20828147275532033,0.16536100523834693
438,194.825,0.029654594410610875,0.07891099269570542,-0.012646534251028999,0.20495835114113078,-0.1812906049788739,0.11145501471833219,-0.03726613110706617,0.24379646110688521,0.14602783841360084
439,194.832,0.031069185292280734,0.07770237641953003,-0.011834287691341669,0.19921047219282612,-0.16402833107099168,0.1206154309064535,-0.1301968790019795,0.25913555537085114,0.12085858743343059
440,194.839,0.03242213866760339,0.07661573456670358,-0.010964456519372674,0.18734763504194213,-0.14644076973634196,0.12790776108451038,-0.21542390313129592,0.2532736286198128,0.09160162150792674
441,194.846,0.033673199052355024,0.07564847003749736,-0.01005088957335235,0.17009818917255334,-0.12992052432238002,0.1331113663496813,-0.28713437166551375,0.22803957397959349,0.06000411148716747
442,194.852,0.03463824899271227,0.07490561652111612,-0.009244484766199827,0.15158512427985035,-0.11769731447135666,0.13569023603448335,-0.34213470910118676,0.18743393467772573,0.0276530628044935
443,194.859,0.03561260826358199,0.07412066637091545,-0.008291821862743003,0.1268032388255844,-0.10657415701438612,0.1364991649529857,-0.3798793019233514,0.1366364652757341,-0.0040851218518375984
444,194.866,0.03640631176319587,0.07340079682061548,-0.007340902233369607,0.09996918963536401,-0.09910285735688829,0.13519215772493326,-0.4019239843365177,0.08103797451745288,-0.033994205603118194
445,194.873,0.037008457465811245,0.07271987790296536,-0.006405958251547421,0.07207243968389034,-0.09544540482951089,0.13193469422515655,-0.41084082180645715,0.02552098663615577,-0.060911175651660376
446,194.879,0.03736852181395408,0.07214716633190114,-0.005627114886191105,0.04794900969704904,-0.09545845219188803,0.12767976089360564,-0.4091276005341786,-0.02596447353457504,-0.08371630779242294
447,194.886,0.03760710746566378,0.07146736127950716,-0.004755599275485245,0.02021831936281553,-0.09877156277768095,0.12132469930789079,-0.3987991003477649,-0.0705621716002659,-0.10143681601963493
448,194.893,0.03765489474334799,0.07075469700664408,-0.0039321374831957,-0.006564811453051305,-0.10484680089734018,0.1139500984889539,-0.3815206918587684,-0.10643836578012338,-0.11342032738907588
449,194.9,0.037520009611000216,0.06999204845317356,-0.0031624653910114313,-0.031973797789141264,-0.11305278580836813,0.10595621356353724,-0.3587637459191477,-0.132640944426204,-0.1194795029858215
450,194.906,0.037267212631641615,0.06928886534763484,-0.00254785703969296,-0.05229186199705479,-0.12134158270452702,0.09891323687594546,-0.33185823705202516,-0.14909974161026418,-0.11991508087960047
451,194.913,0.03682501713464433,0.06840274546730267,-0.001883736377625192,-0.07404970857350802,-0.1318355259616271,0.0908355237147098,-0.3020511604759699,-0.15663866059909856,-0.11542706410015106
452,194.92,0.03623788178257728,0.06744224407258996,-0.001274607281633938,-0.0937032491604958,-0.1425934439572082,0.08320136085480216,-0.2705498103536937,-0.1567905793442658,-0.10699235420807224
453,194.927,0.03552080792560338,0.06640705637654834,-0.0007165533257290994,-0.11117499568904371,-0.15317446919733,0.07624262654646635,-0.23848513833740378,-0.15148493457782453,-0.09574862282080497
454,194.933,0.03481445016015283,0.0654620427256554,-0.0002748650566656154,-0.12427759279446224,-0.1618300811003055,0.07098679647468939,-0.20687921834634407,-0.14272399177912612,-0.0828998817407854
455,194.94,0.033898428929513356,0.06429619466010736,0.00020371788299405723,-0.13744275881663032,-0.1712693661988973,0.06575118628511936,-0.17668458849198015,-0.13228720976224953,-0.06963830669159152
456,194.947,0.03289722662909676,0.06306682010716162,0.0006487555168524705,-0.14861504130219277,-0.179980506071063,0.061402423388622146,-0.14881705683628427,-0.12150966341373588,-0.05706180850703424
457,194.954,0.0318241277494657,0.06177900105788663,0.0010661768481650346,-0.1579846385921782,-0.18796779372152825,0.05786081412916809,-0.1241638078970121,-0.1111979570117494,-0.04612208811855075
458,194.96,0.030856119254277444,0.06063240251333775,0.0014059466005553803,-0.16468485980389425,-0.19423172112808404,0.05539577000094287,-0.10358033210716175,-0.10171632076763346,-0.037666093990022916
459,194.967,0.029680330379023283,0.05924936450871597,0.0017852817953327325,-0.17125481883991162,-0.20092199447785614,0.05298571422108032,-0.08783377496778007,-0.09320311363270582,-0.032550276092984234
460,194.974,0.028461682821585708,0.05782141028031766,0.0021484617252322306,-0.17693019757198897,-0.20706492792302664,0.050779980036266235,-0.07751695954389873,-0.08576971006174242,-0.03171323561507577
461,194.981,0.02720510535383822,0.056352095803661434,0.002495770000961499,-0.18209193606989396,-0.21273920826416748,0.048450955886311015,-0.07286899569788151,-0.07954902310508918,-0.03614229827420361
462,194.987,0.026099633704016596,0.05506205440301882,0.0027791566593046895,-0.18639861387063378,-0.21727459195002027,0.04601126356141549,-0.07351731021833058,-0.07461111944622827,-0.04678416233825267
463,194.994,0.024776559745987355,0.05352366300600875,0.003087878526631982,-0.19162251699459318,-0.22226580719539968,0.042194984246319386,-0.07867979579663059,-0.0708066836444105,-0.06440217740040502
464,195.001,0.02341517688447589,0.05195115930126716,0.003364777312275857,-0.19734401486554703,-0.22702096558759033,0.03691895450901686,-0.08801460824697474,-0.06773366229248684,-0.08931362440751568
465,195.008,0.02201092493206961,0.05034605792255581,0.003597925476949623,-0.20387082867881773,-0.23157942832961184,0.029694806826297306,-0.10214247359518741,-0.06507600525870838,-0.12116010464993562
466,195.014,0.02076788370033663,0.048945272888704754,0.003751366225946509,-0.2104762485654935,-0.23534891628738913,0.021452109505995916,-0.12237931813714074,-0.06305092758030582,-0.1590136318894222
467,195.021,0.0192617480238609,0.04728274847217536,0.003858187370946209,-0.21984823042901142,-0.23965805986545538,0.009068217636877715,-0.15067102054846748,-0.06249488872308244,-0.20178794864622404
468,195.028,0.01768189612418898,0.045589863060094514,0.0038675607778191437,-0.23153802661978623,-0.24402348644301294,-0.00639010138746973,-0.1899082566553092,-0.06469071863968967,-0.24858629519666103
469,195.035,0.01600907399293552,0.04386537893202196,0.0037570787728906365,-0.24641115373800399,-0.24868626443450745,-0.025176185734938253,-0.2434165679194761,-0.07115814751574451,-0.29874155587393464
470,195.041,0.014481464743255047,0.042359629847952225,0.003548625399551226,-0.26279192948880126,-0.25323009692205295,-0.044308272044862596,-0.3133748525552927,-0.0832891743711165,-0.3515683974034713
471,195.048,0.01255629002596898,0.040564777456148116,0.003147458760521132,-0.28725798973539635,-0.2595848721644699,-0.0703107676779395,-0.3994376703341346,-0.10185560690084518,-0.4060077847370247
472,195.055,0.010437594800688618,0.0387202211825822,0.002551187826421349,-0.3180835032014176,-0.2674312059968443,-0.10005235635044815,-0.498655925512976,-0.12674535942211698,-0.46050593437886367
473,195.062,0.008078289398398913,0.0368141056041113,0.0017338359871982303,-0.35600375459515887,-0.2771732449944508,-0.13347674057027598,-0.6061410786690027,-0.15708650095832571,-0.5133051084136417
474,195.068,0.005825642401741011,0.03512031953660928,0.0008379909261738062,-0.3948785776241135,-0.2874221108395341,-0.1651382797711874,-0.7152351653067059,-0.19127798793723474,-0.5628877199531716
475,195.075,0.0028773685764123657,0.03305816624787007,-0.00045866245745013114,-0.44748537247260334,-0.3017645430879263,-0.205334115551177,-0.81745059526439,-0.22658517484196283,-0.6082078640237096
476,195.082,-0.0004617563446366619,0.0308875030358413,-0.002046969167227372,-0.5065503192550085,-0.31842494606270844,-0.2484678015277104,-0.9033918005257251,-0.25881148310429297,-0.6484812478545292
477,195.089,-0.004232029855568293,0.02859350408056916,-0.003946139746057119,-0.5706706838675448,-0.33700332687171985,-0.2941523638518296,-0.964738924543213,-0.2824649775189467,-0.6825270059932326
478,195.095,-0.007829118389127114,0.026520846347145202,-0.0058337824119064855,-0.6283588273186832,-0.35388258426957386,-0.3350618580979354,-0.9961122479141231,-0.29127010353501087,-0.7080088122560945
479,195.102,-0.012466919395006751,0.02397517692746828,-0.008350898501380231,-0.6967271743602665,-0.3734515356375982,-0.384114167465478,-0.9957823787360005,-0.2788663816346103,-0.721117906202663
480,195.109,-0.017579564444570088,0.021298729533468223,-0.011212468437098552,-0.764028554085357,-0.3912477197904434,-0.4334772427391719,-0.9650264230185626,-0.23962097578779532,-0.7170628989116099
481,195.116,-0.02315259730260613,0.018510844289189133,-0.014415990960784079,-0.8282665482095173,-0.4052909214315846,-0.48181490688461065,-0.9065314083397319,-0.16952417837162417,-0.6912428104184066
482,195.122,-0.028274836858464103,0.016058215088699618,-0.017424428205049827,-0.8791466370764084,-0.4122521453982233,-0.5209975078706001,-0.822910309504425,-0.06709158632676593,-0.6405949726501562
483,195.129,-0.03461380666385958,0.01317230362216371,-0.021216196421852317,-0.9319875930426453,-0.4122939879005095,-0.5623648397908794,-0.7165976764442871,0.06587251552754018,-0.5646318572609664
484,195.136,-0.041294833596745115,0.010321039424528599,-0.02527654298171071,-0.9768772449232862,-0.40235292570894005,-0.5977341773106889,-0.5912510612011975,0.22375783564268892,-0.4658449116308195
485,195.143,-0.048258459606886024,0.007579182130899779,-0.029558626342821512,-1.0127301865441236,-0.3810348724701629,-0.6257182115772383,-0.4533153917614561,0.3973382934056586,-0.34946290111517825
486,195.149,-0.05440241690359133,0.005378815797886745,-0.03336345290022788,-1.035255579024234,-0.35242057186748726,-0.642557307558169,-0.31233487209383226,0.5752772481800521,-0.2229070716730176
487,195.156,-0.061708333172341895,0.003070661804933555,-0.03789956508038362,-1.0521490691887225,-0.30705199754723855,-0.6534747439139725,-0.17985272260616417,0.7465247745061949,-0.09516969564582746
488,195.163,-0.06910308545160324,0.0011193327493154157,-0.042482437702773185,-1.0606372963130093,-0.25047058977183134,-0.6559174339106817,-0.06744964362435302,0.9019603358268592,0.024002535848069065
489,195.17,-0.0765337530329497,-0.0004013667898192844,-0.047055933429670516,-1.0624105840787974,-0.18401499283953662,-0.6507956309214991,0.015785349765620252,1.034206796607824,0.12521990837381305
490,195.176,-0.08290102659786641,-0.0013138220585458583,-0.05093194817498546,-1.060013937560029,-0.1201367634026432,-0.6412092841834338,0.06567796063321589,1.137048743829566,0.20062519802728085
491,195.183,-0.09030313074699647,-0.0018732606488188431,-0.0553668685177658,-1.054872962189906,-0.039702833818095334,-0.6259108137529001,0.08410306609338365,1.2063736010512878,0.24509189716607419
492,195.19,-0.09766765078869122,-0.0018571054627485903,-0.059687833142127444,-1.0492756211499472,0.0443186012667357,-0.6086505074924019,0.07897405984972104,1.2415698159090984,0.25778279239912344
493,195.197,-0.10499538777895946,-0.0012481134614770976,-0.06388816933379263,-1.044363518925199,0.1296791133821379,-0.5914455472682217,0.06413880524677254,1.245387274151252,0.24347940429300152
494,195.203,-0.1112507582660826,-0.0002522120509537923,-0.0673966306210881,-1.0407599767824371,0.20228802345895122,-0.5780415484968889,0.058347539657339964,1.2226288195814223,0.21212975790245783
495,195.21,-0.11851925257314694,0.0014522770191367897,-0.07139625748985082,-1.035952682377317,0.28470885370943844,-0.564708985434502,0.08171177592710623,1.1786813773746758,0.17631111967631216
496,195.217,-0.12574303230495545,0.003721129332491786,-0.07531025120488455,-1.0279843838522111,0.36353466439152593,-0.5535749331457658,0.15044260109840285,1.11788882701378,0.14807669846540744
497,195.224,-0.13288815196941337,0.006525370519142079,-0.07915110321812517,-1.0134783774283038,0.43767710322552417,-0.5438113563552253,0.2721862542178746,1.042232514386372,0.13638266010609146
498,195.23,-0.13890583942436183,0.00932738182594285,-0.08238909701267476,-0.9924174408877712,0.49632666570803063,-0.5355199084945981,0.4436863608114457,0.9512978105293483,0.14544813364532125
499,195.237,-0.14572119409391854,0.013017279724285027,-0.08609930170422786,-0.9548267504127534,0.5579298766746954,-0.5245385748055287,0.6515089687423594,0.8434962750181617,0.1744902664363024
500,195.244,-0.15222154605393617,0.01711034677272095,-0.08972381503747312,-0.9024166667338114,0.6115178514490186,-0.5110366632638047,0.8754456612836086,0.7177759163529961,0.21888453657169382
501,195.251,-0.15830196252806983,0.021546290363156185,-0.09324209737471183,-0.834845183017419,0.6558946029601426,-0.49418686166082015,1.0932325524458244,0.5751295977942488,0.2720302028572358
502,195.257,-0.16310111869668756,0.025569413986814553,-0.09615432751429842,-0.7648735398550947,0.6851466049259298,-0.4765565182013432,1.2851414135983625,0.41916175775823117,0.3272346993426752
503,195.264,-0.16812817941093902,0.030446482286803175,-0.09940535464014523,-0.6714295213585835,0.7083014807841093,-0.4523083748970829,1.4373266054483171,0.25544973715776803,0.3792288681415742
504,195.271,-0.17247015063452262,0.035446143570691764,-0.10247489616114697,-0.5691336853837395,0.7201731717602661,-0.42470348824920334,1.5430368935239152,0.09042899895341476,0.42503257392570915
505,195.278,-0.17607631206371932,0.04048987321676543,-0.10534101068560589,-0.4611981515288645,0.7208924414026088,-0.3941863758813331,1.6016377872808136,-0.0694732585020086,0.46407583335327124
506,195.284,-0.1785594531213647,0.044789814598798924,-0.10762124711368702,-0.36651553435289574,0.7124213526085027,-0.3658924334790158,1.6166755401029924,-0.2184636276621683,0.4976505598702476
507,195.291,-0.1807393101463401,0.04970823757829463,-0.11005929507440865,-0.25630075849676714,0.6928423558178384,-0.3306926981552361,1.5944042841867891,-0.3519655283740882,0.5278848916201626
508,195.298,-0.18215651750659267,0.05445973473593868,-0.11224385993009486,-0.14861563014654092,0.6647282606509208,-0.2934686891832378,1.54297489510625,-0.4671315760513335,0.5566272644014206
509,195.305,-0.18283468510124473,0.058989062803959116,-0.1141610369526575,-0.045146539753912,0.6293654730682797,-0.25429617440569485,1.4715710767613814,-0.5631543620654643,0.5846541190771372
510,195.311,-0.18285306539158558,0.06265895596864586,-0.11558125227860122,0.039019776306958645,0.5939322484939222,-0.21910893424219124,1.3892874923683232,-0.641240090486498,0.6113791904119094
511,195.318,-0.18225634780538222,0.06665485636015568,-0.11696528037202764,0.1314709626081665,0.5477535776509261,-0.17632766387936005,1.304254609926454,-0.7041638910089476,0.6350423810378025
512,195.325,-0.18103242803233677,0.0703137771891185,-0.11804480835529306,0.21822040112027133,0.49765237348480873,-0.13210890276893467,1.223168502011293,-0.7555221140790002,0.6532601224550407
513,195.332,-0.17921969784359426,0.073610605225481,-0.11881136395604358,0.2997025099486494,0.44429849404665883,-0.086906983159631,1.1507922819849845,-0.7989297684442084,0.6636864570677867
514,195.338,-0.17722376380722535,0.07613197579229032,-0.11921558426834188,0.365608835507625,0.39615836155641465,-0.04783312093979701,1.0893993416912324,-0.8373793513959805,0.6644552365731782
515,195.345,-0.17440883789637454,0.07869962844663826,-0.11939199745087622,0.4386557104491773,0.33745668254247424,-0.0025706454985526886,1.0388030207435897,-0.872879329161118,0.6542556219102265
516,195.352,-0.17109367692952465,0.08084808791341865,-0.11925544121706982,0.5085331372215393,0.2763888793943382,0.041586712300354586,0.99705826499654,-0.9063157840118643,0.6322579115120861
517,195.359,-0.16729871988262807,0.08256131623541897,-0.1188165095073332,0.5757403047481396,0.21310492689112107,0.08382234762430585,0.9610056880077217,-0.9374462842398373,0.598266720065789
518,195.365,-0.16367770044828972,0.08367202859504094,-0.11821194406550103,0.6312661733645952,0.15713252631618743,0.11769946631974343,0.9263485942549444,-0.9650858606119221,0.5532348526913468
519,195.372,-0.15904087523890045,0.08453739170635163,-0.1172615303214612,0.6935410293171027,0.09011407691526195,0.15384731769144544,0.8880136993333839,-0.9874798371799579,0.4999237218233572
520,195.379,-0.1539783331067306,0.08492911032943802,-0.11607129140118393,0.7528995798791258,0.021805529681221292,0.18622094524605246,0.8413827688714044,-1.0026725370986969,0.4432737893324202
521,195.386,-0.14851278409547813,0.08484011399871835,-0.1146676364343094,0.8086858519061713,-0.04723305274396686,0.21482333100352713,0.7839362610581581,-1.008749229184935,0.39004953885972454
522,195.392,-0.1435282558214735,0.08437907120170568,-0.113313580229727,0.8528235727619762,-0.10644787959358587,0.23652873719058978,0.7163287242937291,-1.00399473705623,0.34772894774755486
523,195.399,-0.13739527646245422,0.0833947487290261,-0.11157729984742905,0.8994562440994197,-0.17478711260037955,0.2595513720370426,0.6423024476270814,-0.9870516594996006,0.323029738491925
524,195.406,-0.1309537389981813,0.08193768732933354,-0.10968312826857553,0.9409830314058181,-0.2415161444543394,0.28164050763500575,0.567570074921208,-0.9570819307219661,0.3205316815050712
525,195.413,-0.1242387967581546,0.08002231524720892,-0.10763209070074484,0.9775718943147286,-0.3057330218665907,0.30437022603048686,0.49843726001068295,-0.913860670536376,0.34169295747430584
526,195.419,-0.11829048567720218,0.07803155094863619,-0.10574180089165551,1.0051984660026665,-0.35785507765762625,0.3257263769992654,0.440604841962192,-0.8577961742588611,0.38421415551459065
527,195.426,-0.11115340739265751,0.07532861721043016,-0.10336249004249448,1.0339667581597767,-0.41441170468953514,0.3540767227633032,0.39755212753464486,-0.7899669553404584,0.4417660507487299
528,195.433,-0.10382358202629614,0.07224727284997656,-0.10077026297017579,1.0602690607991183,-0.4659723982965759,0.3865595836129394,0.3687588564644908,-0.7122409081866646,0.5046139450300238
529,195.44,-0.09631556676038422,0.06882426224894084,-0.09793652057785934,1.0848781580313271,-0.5120306305700739,0.42308109990546594,0.3482210130902411,-0.6296541258234958,0.5594312631414127
530,195.446,-0.08974770508168552,0.06564766942060855,-0.0952970033481948,1.104409068201492,-0.5468336455406461,0.4567579766493476,0.3156451787341544,-0.5533191617099933,0.5852639774650595
531,195.453,-0.08195347839575408,0.0616943337150235,-0.09196354651337862,1.122512842063043,-0.5826908417685616,0.49565826186887796,0.21180372762859812,-0.4913712481617312,0.5480860661861535
532,195.46,-0.0740802596531834,0.05750506265335112,-0.08838000342046734,1.1269782272412552,-0.6142437472798364,0.5282111932478987,-0.0817058515311399,-0.4279147323064,0.4003354168744651
533,195.467,-0.06628611608859726,0.05311647327911105,-0.08462234086458618,1.0999199340674797,-0.6396389310735736,0.545406679860237,-0.706630726891408,-0.311967571865304,0.1006507685150726
534,195.473,-0.05989955861466341,0.04924345376260589,-0.08137086722460668,1.028932557243725,-0.6513675744280997,0.5384178667995572,-1.7062685752403801,-0.08669535429621607,-0.33820430142997
535,195.48,-0.05325091406281236,0.04470217846168556,-0.07774130743703739,0.87068017186293,-0.6461396544106197,0.49859921536656543,-2.904374942352985,0.23900949149604517,-0.8219021112921536
536,195.487,-0.04798018805251597,0.04027571334536505,-0.07449640116128421,0.6352415453635349,-0.6185646645371952,0.42851686341939504,-3.9550703320046305,0.5643809155500424,-1.219929617967957
537,195.494,-0.04455623475485906,0.036106628689728824,-0.07181623253064813,0.34303082539488405,-0.5726023799294464,0.3372456024760795,-4.558415632503188,0.7747187073069235,-1.4392356552540868
538,195.5,-0.04330740837785347,0.03281169544924472,-0.07004777672214997,0.07324463360696376,-0.5257087002318809,0.25223966702328504,-4.6117628276203035,0.8192228084863998,-1.450162030764795
539,195.507,-0.043850207720854927,0.02931508485678294,-0.06860884711508045,-0.22833016017869862,-0.47332289761362756,0.15888307785342826,-4.174543076622425,0.7070243989323519,-1.2697587567996227
540,195.514,-0.046354462398377795,0.02614402843830343,-0.06776293687513331,-0.4871711762558961,-0.4326932219512992,0.08280556213129442,-3.3667249427321537,0.47671100109282893,-0.946740563911454
541,195.521,-0.05044869955737402,0.023194337578231358,-0.06736326967627823,-0.6826108691755111,-0.41007559521497056,0.03138506611339376,-2.3273614438457257,0.1822478755413011,-0.5513826780598524
542,195.527,-0.0548569467603278,0.02073954472138277,-0.06723755768393894,-0.786804865142358,-0.4081886904011935,0.010518931333033991,-1.2142487888991627,-0.11811096117615057,-0.15786851986397088
543,195.534,-0.06053278120641764,0.0178230199827248,-0.06716205190844114,-0.8348621194535816,-0.4251040920719171,0.011054147380604416,-0.1858872503100679,-0.37471501975694743,0.17346190503977482
544,195.541,-0.06632320691530451,0.014735495113065801,-0.06701503675781499,-0.8195452259414833,-0.4570458706871666,0.030950181369694997,0.6321410973595522,-0.5559006809658639,0.4062040501779706
545,195.548,-0.0718436154673674,0.011391047555563777,-0.06668595167023383,-0.7577143603610722,-0.498510574312729,0.06307412936771278,1.1692856482049923,-0.6521630491278623,0.5297191097767492
546,195.554,-0.07616207287831053,0.008283009042855857,-0.06621188010430755,-0.6817714432865861,-0.5375022632565383,0.09494972594104202,1.4120551451846348,-0.6731855304519052,0.553749644362127
547,195.561,-0.08059757576132903,0.004362742406773944,-0.06542056932217104,-0.5855150947177952,-0.5825739184803509,0.1311390689549416,1.3923494044605305,-0.6399658289035298,0.5006177787312028
548,195.568,-0.0843881122710489,0.00013840862829848054,-0.06439458227214168,-0.4974953366299651,-0.6243785896546333,0.16200008819609665,1.1720841493820793,-0.5780027703706515,0.39851026896042924
549,195.575,-0.08763020650668384,-0.004363276829702965,-0.06317960199079499,-0.42881730212597063,-0.6618172554929401,0.1851371350469739,0.8288331437440646,-0.5127633595639792,0.2755817823066677
550,195.581,-0.09009097120447522,-0.008420456937176187,-0.062030760246141875,-0.3914375971377944,-0.6905761136647489,0.19781011317071615,0.4417232300150615,-0.4647657719201912,0.15517959300980172
551,195.588,-0.09276852098543345,-0.0133636897854735,-0.06062100146096359,-0.37357662599258173,-0.7217761287049023,0.20497811116564948,0.07865168016469025,-0.44423883326771835,0.05365822899081481
552,195.595,-0.09539948208137547,-0.01852337980083264,-0.05918201799385888,-0.37812654427603154,-0.7524210185395126,0.20616002229254415,-0.21121240706055233,-0.44859233842520607,-0.01922354503673934
553,195.602,-0.09811965458424762,-0.023900108153189575,-0.057748311154219786,-0.39906559940117214,-0.7837870821327999,0.20347050331833252,-0.3988417070974252,-0.46525004967047723,-0.059134915052215284
554,195.608,-0.10059110220556719,-0.02868610390981795,-0.056538553366785156,-0.42475027437198665,-0.8115448367432652,0.19978209249319512,-0.47419427599614006,-0.47825103073462927,-0.06623616223164323
555,195.615,-0.10367472039954072,-0.034481182053792914,-0.05515333690420685,-0.4562834953341068,-0.8441917758198273,0.19599403967175114,-0.4445182000743282,-0.4729093429924919,-0.044127805700941006
556,195.622,-0.10696168354950285,-0.04049948962153466,-0.0537864390784032,-0.4828488332258292,-0.875324672105157,0.19454819627187023,-0.3294562499658697,-0.43413977412431604,0.0020035212356658287
557,195.629,-0.11039928385194409,-0.04671970911689046,-0.05241629635916669,-0.49932268176066896,-0.9018808980024468,0.19692115208272737,-0.15050519121055786,-0.3395692002488658,0.06713195056488624
558,195.635,-0.11340155714752552,-0.0521748569426361,-0.05121610430782174,-0.501435083433103,-0.916501710579365,0.20314286503224127,0.07870351675380738,-0.15740012080428784,0.14434743500557368
559,195.642,-0.11685999038249734,-0.058592959124766114,-0.04975016468454964,-0.4866886979867109,-0.9172417700279003,0.21569702733091697,0.35092872103182143,0.13583867456890367,0.22141493174604704
560,195.649,-0.12014615393064577,-0.06493413395289643,-0.04817963467862462,-0.45221517291217284,-0.8945224665794689,0.23302583150448086,0.6534487771676784,0.5260825275429328,0.2834554273193836
561,195.656,-0.12311823524482614,-0.07101766125217887,-0.0464760495701546,-0.39695091685303685,-0.8436281903571291,0.25371277091517647,0.9566614485930183,0.9567094327902051,0.3192533587938535
562,195.662,-0.12530827861506758,-0.07587543123979304,-0.04489698712454651,-0.3330635398940777,-0.7756284721808677,0.27264137762083507,1.2149050210630048,1.354637737285162,0.3241402127675496
563,195.669,-0.12732765754280786,-0.08094338500407282,-0.04291359325616748,-0.24390186803130978,-0.6723583176123205,0.29404258477276846,1.3827979039260656,1.6541122892922389,0.2993785846641673
564,195.676,-0.12869663195468786,-0.08523443633892934,-0.040789300782330395,-0.1472336782214279,-0.5536563494936438,0.3128981220398589,1.4336055368937661,1.8042397508051526,0.24997275978514735
565,195.683,-0.12939112214758278,-0.08867988474859172,-0.0385471212380548,-0.05119209117697658,-0.4307574818377613,0.3277246048955666,1.3645419896573192,1.7763879036303494,0.18199309591181326
566,195.689,-0.12947267038392254,-0.09096865127936764,-0.03655578167863975,0.02400934573039197,-0.3321646950875159,0.33605524824275734,1.1915954921319327,1.5748342007662142,0.10116997361041408
567,195.696,-0.12904807056834053,-0.09295593697092049,-0.0341896713643262,0.09730488729295081,-0.23563121678432025,0.33997627013205933,0.9438517098762225,1.2376444541152525,0.013068014731293027
568,195.703,-0.12817440948276812,-0.09435758118103947,-0.03181745433808993,0.15231256572755758,-0.16483855753510265,0.33780002307781853,0.6587831912096286,0.8248819000618188,-0.07647242629281352
569,195.71,-0.12698389204209787,-0.09536394505888632,-0.029481411257897133,0.18783527446370019,-0.12269397899236212,0.3296408569767901,0.37616200956498375,0.40298981505599607,-0.16124282963840653
570,195.716,-0.12581207292025906,-0.09606176599028557,-0.027538536513843616,0.20277109948255753,-0.10991299814071122,0.3179840577076908,0.1315147546326707,0.03144263135028307,-0.2349780772325717
571,195.723,-0.12438280259783592,-0.09685702373713592,-0.025375952854763417,0.2055918497809057,-0.11730350095922659,0.29989698774335316,-0.04933290286164555,-0.24676307552439214,-0.29198416527851445
572,195.73,-0.12296801444886603,-0.09775697864452716,-0.023351081612999154,0.19863333564041735,-0.13982647258198866,0.278637652762657,-0.153401659633094,-0.40943804813986867,-0.3274012220648348
573,195.737,-0.1216176771704807,-0.09883954449553693,-0.02148045787717386,0.18717731532654008,-0.169478056277726,0.25582627175847356,-0.1803666160885292,-0.4544533985742383,-0.33720263651705096
574,195.743,-0.12052288208575254,-0.0999314770157305,-0.020003420287218274,0.17775437958283433,-0.19449945045345093,0.23651959156003616,-0.1399240623016586,-0.3960373118356699,-0.3190418573871426
575,195.75,-0.1193012208133991,-0.1013717296311641,-0.018418990351158102,0.17129169823218782,-0.21700129681299773,0.21617467588540357,-0.04836453634290265,-0.25954833258581167,-0.27370215304362344
576,195.757,-0.11809902052300264,-0.1029310064689765,-0.016963351443842038,0.17219409902369695,-0.22850637113308564,0.1997221547760319,0.07465575684876868,-0.07564911929136724,-0.20563791894425978
577,195.764,-0.11685963687240127,-0.10452466608877593,-0.015604674618698149,0.18191551543358514,-0.2268249488092822,0.1884712238362302,0.20857526961596196,0.12463693656120056,-0.12215512935295729
578,195.77,-0.1157202827077681,-0.1058469411785565,-0.014487432580767411,0.19786920611078804,-0.21393341445088893,0.1839427888073349,0.33369929839663826,0.31355328328597054,-0.031768824593093825
579,195.777,-0.1142431337409581,-0.10725044289133986,-0.013196732636234169,0.22417335583634032,-0.18706707491712674,0.1848286239176827,0.43266549999862847,0.46919077402942494,0.05757740813737371
580,195.784,-0.11256292006717607,-0.10843426629173322,-0.01187926804571754,0.25588769381532356,-0.15116818233787593,0.1915898305153709,0.491323774887308,0.5767144485702586,0.13940864863265673
581,195.791,-0.1106527689352571,-0.10934768308530766,-0.01049637704556872,0.2898697724468449,-0.1098080443974919,0.20352188381258088,0.49873555457636015,0.6283027865378273,0.20822872854657337
582,195.797,-0.10883008182140394,-0.10989611588674375,-0.009234067323006093,0.3176925988375204,-0.07300288941453113,0.21724802370827898,0.44697735080500195,0.6227243220384745,0.2583301845616261
583,195.804,-0.10651271060888298,-0.11026437639851783,-0.00764827601434734,0.3444134618822787,-0.03221439966370267,0.2358352073367551,0.33152828552309516,0.5656380865836433,0.2832027439967012
584,195.811,-0.10404352074939288,-0.1103654316186504,-0.005930102017528729,0.36106935511439026,0.0033414796258470006,0.2550716488967829,0.15373698220265708,0.47027352993675764,0.27724615139612047
585,195.818,-0.10150645078749855,-0.11024277900171921,-0.004082462225578077,0.3638077768548988,0.03170212521160952,0.2728254345173117,-0.07395375229506279,0.35600675904330775,0.24000593543172774
586,195.824,-0.09935878204002556,-0.10999965143306194,-0.0024085106783095136,0.35208180563607255,0.04934039767414268,0.28515841457218843,-0.3246183465299105,0.24352765425557588,0.17919872177796262
587,195.831,-0.09700054408955198,-0.10960711844895102,-0.00037784338023693666,0.32170046593005935,0.06281188350077985,0.29503224202191747,-0.5605343583362433,0.14896070318357418,0.1084727620697204
588,195.838,-0.09490526795442142,-0.10913990450659149,0.001705382391828251,0.27694985839253267,0.07067781431613551,0.30017512142485375,-0.7432633572807751,0.08021121631857259,0.04136373817486957
589,195.845,-0.09315743029011721,-0.10863111880277533,0.003809968972161942,0.2224323314083119,0.07468952963123192,0.3011353300986283,-0.8450911043544219,0.036669102214362974,-0.01338829953231913
590,195.851,-0.09197295017057547,-0.10817874647365114,0.005610961861185295,0.17239437510558758,0.07610124674349172,0.29919563290913337,-0.8557260725178168,0.011315925369292051,-0.052543056214202806
591,195.858,-0.09096288419100529,-0.10764541442332076,0.007689827331676647,0.1161959047714008,0.07627933906507964,0.2947659300879712,-0.7816022516047101,-0.006127250291293722,-0.07651522336893771
592,195.865,-0.09032035394652656,-0.10711530368790274,0.009733493735090639,0.06738416507953551,0.0751808710542449,0.2891387566013235,-0.6405155297500819,-0.025876339425420735,-0.08743106341877895
593,195.872,-0.08998030058745146,-0.10659882003421273,0.011736363659274794,0.029773937513278836,0.07238588714279565,0.28310979316516927,-0.45524900805203056,-0.055554815132157244,-0.08822127267531184
594,195.878,-0.08986374228867047,-0.1061781735417399,0.013419956458674888,0.009078828747233085,0.0678296103488047,0.27808780663749944,-0.2481889232205583,-0.09931549545682561,-0.08247876344621298
595,195.885,-0.08983457959001612,-0.10573431667166722,0.015347739918927208,-0.000746629131709543,0.05898663824330289,0.27270746771991233,-0.03807332532465211,-0.1583222767398979,-0.07427606014166634
596,195.892,-0.08982499738492337,-0.10536825217596865,0.01723967536925985,0.0034844020153489245,0.04560321767049926,0.26784551808902807,0.16134335556085316,-0.23160032163668665,-0.06737562172379641
597,195.899,-0.08974013214782908,-0.10511490060739705,0.019098805031379857,0.020762808583002626,0.02678294477847895,0.2633343853734512,0.34205868190909555,-0.31672360409612477,-0.06405509738950652
598,195.905,-0.08954103441023614,-0.10501838296248553,0.02066747244283825,0.045603103947975315,0.005389603525358326,0.2595547517793273,0.5022763820516436,-0.4104476267564027,-0.06441669111196231
599,195.912,-0.08908391124567715,-0.1050911568147395,0.02246861661999441,0.0850035144973575,-0.026182132740766452,0.2550578702649221,0.6456446875244397,-0.5093869830266736,-0.06659882283307901
600,195.919,-0.0883176946197975,-0.10540894708219062,0.024237926935165296,0.1339155214680997,-0.06461508653091731,0.250459362640684,0.7793943558275492,-0.6103474767567648,-0.06737754230791547
601,195.926,-0.08717708201886935,-0.1060198721487358,0.02597550206234376,0.19197379308388762,-0.1099349324825761,0.24599067369768127,0.9121188117236867,-0.7100348571496123,-0.06281658814780934
602,195.932,-0.08585198562747157,-0.10681316051076237,0.027441540724106903,0.2497250040486912,-0.1544945215262677,0.24268888022334836,1.0508760596068687,-0.8045696558998631,-0.04941315644158575
603,195.939,-0.08383376149568507,-0.10809812231517918,0.02913133960664075,0.3269104621756117,-0.21263742259255988,0.24011080050026312,1.1979028849100912,-0.8894091694380644,-0.02569854904349436
604,195.946,-0.08123937237449204,-0.10980875463891743,0.030809841447862748,0.41434357245043696,-0.276114669903732,0.23946115413425006,1.3494388321831288,-0.9599844945152374,0.006771265268487775
605,195.953,-0.0779969055690473,-0.1119785688945842,0.032492131758687495,0.5120755148188272,-0.3438322602863325,0.24119322038676294,1.497956772354036,-1.0129505002529522,0.04369205014974219
606,195.959,-0.07464800066592366,-0.11422348274871208,0.03395003127750034,0.6042261195556797,-0.404472357756268,0.24477328588416702,1.6342920838421522,-1.0482391846354715,0.07799631089111436
607,195.966,-0.07001303538916438,-0.11730933797987048,0.03568451794187865,0.7200496738031649,-0.4772005654312144,0.2507943325092807,1.7401980907522716,-1.0706788869906907,0.09742537090088704
608,195.973,-0.06455241400984434,-0.12090836436639195,0.0374609647430177,0.8401278631443032,-0.5510926878599001,0.2567618963872276,1.7582498091364334,-1.0821495487757915,0.07643810447967114
609,195.98,-0.05827338363689858,-0.1250233537120264,0.039263782171509304,0.9538808148462004,-0.6246185537538838,0.2583287974692394,1.5559138801466474,-1.0600080948124062,-0.030786834837799315
610,195.986,-0.052327467329457866,-0.12894828450033413,0.04078749070045029,1.0280912876339632,-0.6836917090153048,0.2495740455110699,0.966540195667894,-0.9479203775819663,-0.2667919155737138
611,195.993,-0.04502067612807937,-0.13393130627765426,0.0424277766957034,1.059563341329829,-0.7400287987894258,0.21907909598948225,-0.04960981254322448,-0.6934465891215512,-0.6216707827429786
612,196.0,-0.03776398852613439,-0.13923209213419158,0.04376413917331905,1.0137759735101117,-0.7744814459344356,0.1627387547575731,-1.284393653608671,-0.31032263584270714,-1.019790914366895
613,196.007,-0.031109515894591388,-0.14467730941197804,0.04461736309445924,0.8875019212151023,-0.7812949191462998,0.08103950842516539,-2.3945691579213837,0.11181380439059976,-1.360496116295224
614,196.013,-0.026272336866659803,-0.14931370207954944,0.044845507298485035,0.7248910880953652,-0.7641693033774453,-0.0049914404165701115,-3.132660940013214,0.47029513083375735,-1.563742328764412
615,196.02,-0.02198629820956564,-0.15452145957270427,0.044431901649856186,0.499691385359235,-0.7237614089514421,-0.11318160204873026,-3.428475861063293,0.7069787285509985,-1.5883508684052299
616,196.027,-0.01929834985167107,-0.1594054692959332,0.04327680495862395,0.26829385975606923,-0.6716699405472012,-0.21684602401872627,-3.3132329532599325,0.8106931254435645,-1.4318860399417397
