,Time,Position X,Position Y,Position Z,Velocity X,Velocity Y,Velocity Z,Filtered Acc X,Filtered Acc Y,Filtered Axx Z
0,287.874,0.0,0.0,0.0,0.0,0.0,0.0,-0.0002548060776683634,0.0004646476409060976,-0.00013189959259955124
1,287.881,-2.3201077059022022e-07,4.922510930090393e-07,-1.390992496196455e-07,-6.628879159769671e-05,0.00014064316943219568,-3.974264274876447e-05,-0.0016765012232284081,0.003632955790970297,-0.0010259923261948763
2,287.888,-1.4921843634810014e-06,3.565208031426101e-06,-1.0120645070863077e-06,-0.00029376080637084066,0.0007373445272577659,-0.0002096760022415322,-0.004950838818564849,0.013751788462750943,-0.003924973439532501
3,287.894,-4.430019995368206e-06,1.2229388483232363e-05,-3.506685285395156e-06,-0.0006855177375868849,0.0021507156233305314,-0.00062186425719078,-0.008365190991620879,0.034289458924345796,-0.01008552810609486
4,287.901,-1.110706310238716e-05,3.9166273437538004e-05,-1.1470592636642028e-05,-0.0012222088644171672,0.005545537220751294,-0.001653537843163843,-0.007271170248088875,0.06461781602008583,-0.019972022811535404
5,287.908,-2.0066559730748297e-05,9.771551251637257e-05,-2.9390801131691183e-05,-0.0013376473151127564,0.011182816801760916,-0.0034665217268465423,0.003907899968795694,0.09962290928965206,-0.03284880747582511
6,287.915,-2.5423387332915453e-05,0.00020380588178378723,-6.32234887712525e-05,-0.0001928748569339086,0.01912871727462161,-0.006199960455878356,0.029444758196196717,0.13187890610689787,-0.04678924364341862
7,287.921,-1.771167497991277e-05,0.00034383193295550865,-0.000109763399305129,0.0027634456412802162,0.027546633116171525,-0.009313343055486709,0.07104217323053982,0.154250602664853,-0.05903631349121227
8,287.928,2.5455717352569828e-05,0.0005746239774635778,-0.00019005026747157837,0.009570095025134569,0.03839395102894397,-0.013625762134911002,0.1272678477056759,0.16178328142006287,-0.06660493372139237
9,287.935,0.00013099862900191876,0.0008811595341712893,-0.00030147278680092547,0.020585022588943576,0.049187636601768156,-0.018209243387736853,0.19364930148248097,0.1526880379052777,-0.06693364186099528
10,287.942,0.0003299884163902728,0.0012592605204263553,-0.00044401295859347676,0.03626920237911696,0.0588412166138878,-0.022516519981534415,0.26330533906863707,0.1285665921413232,-0.05855778032393569
11,287.948,0.0005998024740834612,0.0016319550087718197,-0.0005879570949025565,0.053668816852368434,0.06539027950185078,-0.02546485878838428,0.3281169601988069,0.09403959474865266,-0.04165784909976221
12,287.955,0.0010605985629569747,0.002107691567084268,-0.0007733901673565729,0.07798720853996997,0.0705344514444659,-0.027516019055582562,0.38039327629768593,0.055834563314977735,-0.018102190325287284
13,287.962,0.0017019791782799663,0.0026107128295672914,-0.00096708313068279,0.10526439583789667,0.07318590926486669,-0.027824827609011338,0.4143207274769305,0.021414994613246908,0.009105130649934155
14,287.969,0.0025398650053603308,0.003125301579990877,-0.0011563618422499012,0.13413155475632216,0.07383944799890979,-0.02625480426726753,0.42671670028615066,-0.002374307672894235,0.03663710524517451
15,287.975,0.003419136573796187,0.0035672412541192895,-0.0013052260336795945,0.1589589680542304,0.07347377670985772,-0.023366592875726632,0.4171804952491815,-0.010055057062611127,0.06153476083641664
16,287.982,0.004628523644060794,0.00408063113513446,-0.0014516024131826137,0.1865801948782676,0.07320904643722902,-0.018455229839391855,0.3875570137448597,0.00234220703217237,0.08155656819122621
17,287.989,0.006022055502739438,0.004597858800299492,-0.0015595528551269684,0.21157176474715067,0.07457028646816022,-0.01238775357350936,0.34056610006255367,0.03731717951941077,0.0952178295294875
18,287.996,0.007577357176233636,0.005135799046393297,-0.0016226677875214779,0.2328001419651598,0.07912692670138849,-0.005645084253480449,0.2779173406345813,0.09543938969564851,0.10122814830986762
19,288.002,0.009016036715655654,0.005634649608784142,-0.001639414424759316,0.24675970450655635,0.0871565940947659,6.287184089433153e-05,0.1965757343478674,0.17749334449795354,0.09278836410254392
20,288.009,0.010775261718566374,0.006301362285736558,-0.0016224091418376066,0.2558760106104331,0.1033327421772167,0.004795780422447762,0.06902555526887882,0.29379466873619314,0.045103739187426176
21,288.016,0.012552824701805639,0.007116002309109267,-0.0015935564991845417,0.25199912745756525,0.12942155021481935,0.0034478317641362818,-0.18197757260594993,0.46629620364075836,-0.08437588493431417
22,288.023,0.014217424618489145,0.008162727399328659,-0.001618696249868984,0.22360084873738217,0.16964276127622183,-0.010630617673971828,-0.6453991482973671,0.7055386827846699,-0.32579620494050254
23,288.029,0.01538474337468874,0.009329742685196128,-0.0017696294864914287,0.165505403330978,0.2193623340147625,-0.039680461200412846,-1.3292964377480607,0.9844564646841157,-0.6616236760102647
24,288.036,0.016127665565627,0.011132745352787798,-0.002249843890561833,0.04675807979408789,0.2957812852967751,-0.0975236542481761,-2.1303770210581066,1.2419904953439702,-1.023623231451856
25,288.043,0.015852226887112485,0.013522072511783268,-0.0032144696386596106,-0.12545484508389304,0.38688361727287124,-0.17808370235099197,-2.8870033098647987,1.4122530748290687,-1.3234735447956987
26,288.05,0.014213698926675636,0.016574688772496148,-0.004799050507557685,-0.3426960007548723,0.4852924572158992,-0.27465368876242013,-3.4422632205238077,1.4548637706047567,-1.490068764653477
27,288.056,0.011528257184008146,0.01973547338497907,-0.006710008606896979,-0.5524512468051641,0.5683024136166921,-0.3623323443536711,-3.687430951331599,1.3666895087578177,-1.4901761233107444
28,288.063,0.006787604649819254,0.024018635978454748,-0.00958498136314534,-0.8020209058192656,0.6554583273754844,-0.45908844314527364,-3.5837184076361317,1.1725761574331253,-1.3287885236098467
29,288.07,0.00036350988570491623,0.028857168618973087,-0.013083025383457163,-1.0334347410692337,0.7269795699144819,-0.5403527055145335,-3.1584655841246447,0.9111772879751711,-1.038825358492075
30,288.077,-0.007548455109414307,0.034130585667675226,-0.017070557001124555,-1.2271266861060721,0.7797110154279089,-0.598942042389621,-2.4847006066511454,0.6251401384181252,-0.6681602620539143
31,288.083,-0.01527693628024053,0.03889509102004915,-0.020746811731536124,-1.3490337041570344,0.8084574353558169,-0.6264762010750505,-1.6589848194077053,0.351966210429199,-0.2677406720162666
32,288.09,-0.0250137389661462,0.044610578721657426,-0.02515035533840759,-1.4329099204080447,0.8245390508300704,-0.6316791151832574,-0.7847276833074772,0.1165676190020703,0.11615507570457044
33,288.097,-0.035133425705869525,0.050388015218521195,-0.029504614435619126,-1.4584291480822693,0.8261570911298282,-0.6123949125905785,0.04123139181995234,-0.06942642109025676,0.44568532538376004
34,288.104,-0.04524837250854662,0.0561384217579012,-0.033654468878779945,-1.431555652680551,0.816816205834713,-0.5732777854545212,0.7417211499086283,-0.20271792688086276,0.693982353065611
35,288.11,-0.05366016118011466,0.06099637746075142,-0.03695810564304215,-1.3723739044954046,0.8025023617742939,-0.5279344692942906,1.2698984546407959,-0.2838173683983877,0.8472614682194072
36,288.117,-0.06292050835602939,0.06654175419615953,-0.04044311301591962,-1.2734395743354834,0.7818909911983191,-0.4677819229557034,1.6125284163337976,-0.3166897386874037,0.9052678675897241
37,288.124,-0.07142653029869644,0.0719396863626548,-0.04350319105120181,-1.1568524092819377,0.7603753420849415,-0.40652608712429694,1.7842093673847534,-0.31016329655944164,0.879405530603272
38,288.131,-0.07909202479166376,0.07719179278182092,-0.0461483952600366,-1.0332888744392301,0.7402264919736359,-0.3492465439769549,1.8157831986982509,-0.27686839291234777,0.7894195785323279
39,288.137,-0.08497774060022566,0.08158841164240786,-0.048115991580346476,-0.9286163950720364,0.7253131282150137,-0.3066188961232069,1.742090943395599,-0.23004490090871557,0.6595172093801087
40,288.144,-0.09107722099609045,0.08661614225160667,-0.0501213389625294,-0.8140922894595163,0.7111813315550477,-0.26633749878579066,1.5945401214558268,-0.18168144688169394,0.5140711890867474
41,288.151,-0.09641614898548431,0.0915554438915115,-0.051879049072501064,-0.71131570750907,0.7000477084167526,-0.23586538977718294,1.3998297908084547,-0.14269386806966874,0.3737260566185637
42,288.158,-0.10108536451107153,0.09642387125224812,-0.05345479265939969,-0.6227458712291836,0.690931537507001,-0.2143470636221022,1.1806301530582992,-0.12290348270018152,0.25320497356621174
43,288.164,-0.10463327008826716,0.10054716148272591,-0.05470431995146515,-0.5598893211749154,0.6834985393253883,-0.20216203373500818,0.9558979530249396,-0.12974814252853573,0.1609707774854144
44,288.171,-0.10834854382830483,0.1052960622147128,-0.05608810207271994,-0.501617461692235,0.6733302412413227,-0.1932042866232208,0.7418380433984433,-0.166502669320226,0.10001093570427884
45,288.178,-0.11170429416398364,0.10996161114219821,-0.05742019622838241,-0.45716834850102595,0.6596837380392717,-0.18739404356578454,0.5531757101311152,-0.23108477541053568,0.0692690370673203
46,288.185,-0.11478955060014294,0.11451365252865477,-0.058715778642213556,-0.42433349040099955,0.6408995152331015,-0.18277236038570638,0.4034596371661029,-0.3161888401216886,0.06538254207467221
47,288.191,-0.11727310064777574,0.1182949003092386,-0.059799226444862685,-0.4035165254804909,0.6195164116340982,-0.17837690716569976,0.30412025065173787,-0.41063440733807083,0.08402128832025636
48,288.198,-0.12002965724251981,0.12252194548485144,-0.06102331892141686,-0.38407107301725196,0.5882107813972807,-0.17136380042095756,0.26241812493232375,-0.5014472700891306,0.1203038159926971
49,288.205,-0.1226531474261281,0.12650991024224137,-0.06218815693071257,-0.3654975508702936,0.5512077207133089,-0.16144705937758033,0.27871677979180576,-0.5766276130315878,0.16861794463096516
50,288.212,-0.12513673532317984,0.130223636115118,-0.06327129291368913,-0.34409899114398734,0.5098568143935444,-0.14802036432978888,0.34472488555892083,-0.6281206611274205,0.22256544470999523
51,288.218,-0.1271316776251489,0.13316966409022463,-0.0641154671609815,-0.3208817761758598,0.4721525106373045,-0.133371051432993,0.44444079854376145,-0.6534690001758724,0.2753726176159412
52,288.225,-0.12925747931825257,0.1363175122107818,-0.06497747173630083,-0.28649013613904123,0.42723266666410364,-0.11291597008664025,0.5575509996396573,-0.6552593765063861,0.32058104200244086
53,288.232,-0.13111622695189168,0.13915263508081263,-0.06568699791528272,-0.2445806163288977,0.3828024390584054,-0.0898057953366112,0.6634723383172714,-0.6392041502306901,0.3527280973501568
54,288.239,-0.1326591222722677,0.14168192521401918,-0.0662290571012377,-0.19624661806751567,0.33985188472024214,-0.06506825779453002,0.7447265664125361,-0.612149467350422,0.36799384839261956
55,288.245,-0.1337011948142824,0.14361576584459634,-0.06655479023844199,-0.15111089593572025,0.3047616588023981,-0.043509454606380664,0.7894610216554211,-0.5805862754933453,0.3648015230490863
56,288.252,-0.13456888216305946,0.1456133228191471,-0.06677419153588342,-0.09679977514326689,0.2659689053545564,-0.019176630376837433,0.7928798474025157,-0.5496308569864069,0.3441292019334757
57,288.259,-0.13506027293831702,0.14734632554502808,-0.06682992995359976,-0.04359758921593668,0.22917473061108387,0.003251368172178533,0.7571524827667995,-0.5223581867003116,0.30930490506825825
58,288.266,-0.13519158670838782,0.148827779820015,-0.06673814787632205,0.006079369195729385,0.19409791938487717,0.022972082478577665,0.6901732287694851,-0.4995959020683632,0.26525315520964476
59,288.272,-0.13504091491091091,0.1499058769658988,-0.0665577184738258,0.04414456329681218,0.16526779591141366,0.03717105168712533,0.6036832904041256,-0.4803555755377844,0.21737748177697117
60,288.279,-0.13459803302965634,0.15094945353751663,-0.06625093705136502,0.08239311706154981,0.1328969388363253,0.050480783301604666,0.5106787209339618,-0.46276121838893813,0.17039820729902233
61,288.286,-0.1339091797042281,0.15177068725880263,-0.06586179258403656,0.11442211877494846,0.101741267245226,0.060703350220733275,0.42247820285538423,-0.4449514515435508,0.12743371343468687
62,288.293,-0.13301586087436917,0.15237829907372952,-0.06541079970024521,0.140811832613135,0.07186210844804584,0.06815175943384552,0.3463794844768324,-0.4255703386165899,0.08957381900815034
63,288.299,-0.13211530556985526,0.15273625840139968,-0.06498903201387073,0.1593732688929138,0.047457667442565486,0.07243746935831263,0.28453376588103724,-0.40394980011903125,0.05609977746251838
64,288.306,-0.13093736765646063,0.1529742596013647,-0.06447219772905186,0.17718042064817158,0.02054267540453485,0.07522946916126082,0.23427312988415563,-0.3802117356904567,0.02524443584306467
65,288.313,-0.1296461696687,0.15302970138406394,-0.06394314041348387,0.19173329014032306,-0.004702166061913492,0.07592976385805689,0.18972106915836207,-0.35529038252029976,-0.00484152566635305
66,288.32,-0.1282639403109043,0.15291437326613794,-0.06341645282933661,0.2031893835153088,-0.028248724774062508,0.0745524030410515,0.14404933518031313,-0.3307326940110682,-0.035287535939930115
67,288.326,-0.12702400479105355,0.15268848831077633,-0.06297808574566566,0.2101224564329655,-0.04704626034611466,0.07156995818190064,0.09160956014831981,-0.3082056988809116,-0.066087376632546
68,288.333,-0.12553861159664503,0.15228743775028047,-0.062496578012905375,0.21427559911202052,-0.0675396140811879,0.06600367974950966,0.029391209127107014,-0.2888630171742608,-0.09608474803757948
69,288.34,-0.12404025738779516,0.15174717259111553,-0.06206090442701224,0.2138256034196865,-0.08682185996708017,0.05847448764945191,-0.042501720648438955,-0.2729203757576511,-0.12327637353702298
70,288.347,-0.12256315440743738,0.15107543279999913,-0.06168384959359456,0.2082038195393757,-0.10510379463746816,0.04925546475552165,-0.1212875413117558,-0.25971920104190926,-0.14531754397008181
71,288.353,-0.12134248223114756,0.15039998286157985,-0.061415268132763365,0.1986869058886209,-0.12004618483455079,0.04027168885444973,-0.20219749692622077,-0.24818071710925277,-0.16004585403124122
72,288.36,-0.12000948042104241,0.14950134299762063,-0.06117251739624368,0.18217075414114958,-0.13670806201075222,0.02908566443683878,-0.27899643772772764,-0.23725889132524358,-0.16585615903723663
73,288.367,-0.11880923376380095,0.1484887163654435,-0.06100829235719233,0.16075686221330943,-0.15261383289679126,0.017835775292084056,-0.344891927465421,-0.22615175017174843,-0.16190653682283754
74,288.374,-0.11777271366741844,0.14736750122543313,-0.060920695331077315,0.13539173675291033,-0.16773334996308797,0.007191946455045105,-0.3941146347108567,-0.21435158368220086,-0.14819874412810158
75,288.38,-0.11703249896651455,0.1463243825209689,-0.06090170167054006,0.11134649688288001,-0.17997288485995477,-0.0008607262759294451,-0.42319606330675746,-0.20167682210789467,-0.1255159539258513
76,288.387,-0.11635569570723366,0.14501773041420263,-0.060934242950859405,0.08202586291152067,-0.19335628850157524,-0.008436782386735411,-0.43105324627510466,-0.1882452829829193,-0.09521053883454383
77,288.394,-0.11588354539615815,0.14362068551477106,-0.061011823269797955,0.052874225967098364,-0.20579939705001596,-0.013729023024263268,-0.4182723773549679,-0.17428156063651484,-0.05897756348156897
78,288.401,-0.11561010067380115,0.1421399465659219,-0.06111726527930067,0.025252837563419544,-0.21726887404943923,-0.016397265405063265,-0.3864698392213664,-0.15987877224008512,-0.018761008399992198
79,288.407,-0.11552251488000922,0.14080942542539246,-0.06121524657387453,0.003942427034026134,-0.22623817279579314,-0.01626316611970997,-0.3378825315166379,-0.1449925394513367,0.02331911558079727
80,288.414,-0.11556857277907673,0.13919273672473584,-0.06131847937519289,-0.01710182676759103,-0.23567288453434315,-0.013231919971228284,-0.2752365196695362,-0.1298854183933987,0.06499547993724467
81,288.421,-0.11574581826434076,0.13751352359740956,-0.06139088115894961,-0.03353974045066587,-0.24410229470139014,-0.007454303959248314,-0.2036779686204972,-0.11570333055439107,0.10333391205625947
82,288.428,-0.11602132191060748,0.13577844465042754,-0.06141453843628125,-0.04517558705405583,-0.25163454729311674,0.0006950818644980228,-0.1353295008992863,-0.10374695767484175,0.13409639795176023
83,288.434,-0.1163122585864937,0.1342512624109486,-0.06138506175088418,-0.051803304907557364,-0.25742619919743603,0.009130479934479598,-0.08995021077493089,-0.09311442054951508,0.15262734120963528
84,288.441,-0.11669594075911156,0.13242849786363184,-0.06128404916410874,-0.05782017298407334,-0.2633636714683463,0.019730259144431536,-0.08534973005415773,-0.07987234341616904,0.15619456491763378
85,288.448,-0.11712586025326534,0.13056813663423691,-0.0611096860728777,-0.06501396820263117,-0.26816810835839455,0.030087766921544284,-0.12423968758016443,-0.06010371918405732,0.1455688238354892
86,288.455,-0.11761872366667109,0.12867968749607162,-0.060866605489998275,-0.07580414991319626,-0.2713887882598771,0.03936382818681411,-0.19012954759792908,-0.03372998116884476,0.12468689230066606
87,288.461,-0.11811277702464354,0.1270479587227543,-0.0606106458253492,-0.08888030274350121,-0.27252080284329694,0.045956060029136866,-0.2543359538812552,-0.004747806298993888,0.0993866306757932
88,288.468,-0.11879985228416826,0.125142329295572,-0.06026782641681125,-0.10742691426341927,-0.271944747779824,0.0519923424102079,-0.2860149164801777,0.02153102595016414,0.07647894104097099
89,288.475,-0.11961754238299112,0.12324622360386898,-0.05988712789294712,-0.1261988282572314,-0.26979973556351,0.05677866440803836,-0.260900084894216,0.04096336645010972,0.06296934872237589
90,288.482,-0.12055286681093687,0.1213688185556949,-0.059474362066485674,-0.14103672258421882,-0.2666017067715605,0.061154428866575475,-0.1713982411535406,0.05221039951328523,0.06451745020732957
91,288.488,-0.12141712510350146,0.11977892221383074,-0.0590943515554114,-0.14704937493866635,-0.2633637405189808,0.06551574149211074,-0.03297506180842178,0.05784982331492685,0.08372592293082201
92,288.495,-0.12243533908120131,0.11794994474746377,-0.05861128929443141,-0.14386890440393998,-0.259201249871209,0.07250204735921674,0.12563727235575678,0.06342329668218342,0.11981834454077006
93,288.502,-0.1233934135004766,0.1161520742712236,-0.05806901112539034,-0.129866643960232,-0.2544760290541882,0.08243457236669098,0.28231507029505315,0.07424482551820145,0.16956327791417172
94,288.509,-0.12421705329670756,0.11439082140480139,-0.057444205559653454,-0.10545901210558672,-0.2487390756375101,0.09608130355800704,0.4287951560638199,0.09289987196984453,0.22803080922658928
95,288.515,-0.12476237974006142,0.11291713403792165,-0.05682208291342386,-0.07631646901322371,-0.2424900466580421,0.11129291185283244,0.5617756332305183,0.11950800022223476,0.28901997756594044
96,288.522,-0.1251479878154958,0.11125244708111522,-0.0559667568442398,-0.0338572668250939,-0.23313479814345636,0.13308596505672468,0.6752625628069948,0.15305481654216374,0.34591515621359137
97,288.529,-0.12521230150566773,0.1096618999220324,-0.054946420713855665,0.015481926775983632,-0.22130724730845314,0.15843864362424936,0.7622224557712812,0.19153790763683096,0.39272876886367947
98,288.536,-0.12491399012045226,0.10816356608538794,-0.05373916774904967,0.06974989757123205,-0.20678813458965947,0.18649077489150326,0.8188612489512327,0.23147279628880835,0.4245630329015613
99,288.542,-0.12434858537855524,0.10696694005991202,-0.05254411564919523,0.11871834972866191,-0.19208720723752246,0.2118599250618483,0.8456029040354299,0.26821966927303303,0.4377480917082444
100,288.549,-0.1233143947103738,0.10569023536566127,-0.05095681507741616,0.17676469832296765,-0.17268556254814196,0.24165452401756163,0.8455628892714223,0.297042377817946,0.430310068700167
101,288.556,-0.12187656573385106,0.10455483607596466,-0.04916518734432166,0.2340435806832354,-0.15171423450780008,0.27023911400907275,0.8232429679851136,0.3139519996220538,0.40249478431839464
102,288.563,-0.12004519571507946,0.10356852768252613,-0.04718230350409432,0.2892049961082761,-0.13008816361729553,0.29629912605547815,0.7838710217201602,0.3161181463791399,0.3567571240844835
103,288.569,-0.1181761103799814,0.10284257334791606,-0.04534678095832183,0.3338234489214384,-0.11189661458490152,0.3155417225324288,0.7327343026583403,0.30222243653507797,0.29730912949034455
104,288.576,-0.11567026986999276,0.10212836505474619,-0.04307469179668641,0.3821309825033743,-0.09216289774920264,0.3336266093629406,0.6746935602685334,0.2727144491695869,0.22958950796481867
105,288.583,-0.11284053532895558,0.10154357645637266,-0.040692547086840426,0.42636460064952947,-0.0749195589288286,0.34698616487828166,0.6140417992250923,0.22966589828740014,0.15963778795410338
106,288.59,-0.10971562705619625,0.10106790465886889,-0.0382332653386638,0.46646633443117475,-0.06098666893039943,0.3556657631773873,0.5543121466598,0.1762653538594988,0.0932401294115885
107,288.596,-0.10682396205843642,0.10072779963112832,-0.03608794767852741,0.4974219981508361,-0.05238167364924835,0.35944012353132904,0.49788759261622,0.11622308616538188,0.03505241880564895
108,288.603,-0.10322864899074993,0.10038148671879527,-0.0335690932262066,0.5298103069017097,-0.04656487273155475,0.3602325771312445,0.4457376515031274,0.05324794821841299,-0.011964482123764763
109,288.61,-0.09941867138541721,0.10006081080028575,-0.031054509017787467,0.5587547231925744,-0.04505681827109608,0.3582200538451385,0.3975506504099038,-0.009311160121776196,-0.046669878557276105
110,288.617,-0.09541731529495225,0.09973605204708105,-0.028560914855767432,0.5844898740823149,-0.04773139693017937,0.35423542101721944,0.3522365097524679,-0.06861201763679667,-0.06942139851101664
111,288.623,-0.09185205004766214,0.09943280921685214,-0.026448817063621264,0.6039318750199696,-0.05334954647993001,0.34979717636814517,0.3086076092125882,-0.12235192179127974,-0.08143693568381177
112,288.63,-0.08755549953570335,0.09902438707250713,-0.024020132463505435,0.6236539855388056,-0.06334249476141975,0.34411270937873817,0.26599112936413233,-0.16879011758236964,-0.08417858292281738
113,288.637,-0.08313099279629492,0.09853587491961148,-0.021630944809994987,0.6404907971484143,-0.07623240606580849,0.33851233448090223,0.22454514986903137,-0.20675421215829567,-0.0789869337078636
114,288.644,-0.0785983390572315,0.0979491074386901,-0.019278890006740056,0.6545531282973525,-0.09141544562589186,0.3335033235914552,0.18515733769744222,-0.235599833604311,-0.06694934100495074
115,288.65,-0.0746415153174935,0.09735732079865807,-0.01728809166256946,0.6643881182881803,-0.10584676771904948,0.33009612446852893,0.1491392872415578,-0.25492860350130725,-0.048863198545329944
116,288.657,-0.06995867237206192,0.09655405191657765,-0.01498632011375221,0.6735670089770255,-0.1236586271609048,0.327552889478787,0.11828538854589495,-0.26401544953100337,-0.025233314381833922
117,288.664,-0.06521806109738867,0.09562528395681807,-0.012696073083920893,0.6808933552143636,-0.14170364705592642,0.3268034047582645,0.09516586974262382,-0.26172167476755875,0.003397265213391227
118,288.671,-0.0604304721389501,0.09457220801695215,-0.010403746915351718,0.6869892043385375,-0.15917519290554866,0.32814692911817467,0.08243516407974784,-0.24730742719342155,0.03574597971032867
119,288.677,-0.056294097540959355,0.09357579280648706,-0.00842558827509969,0.6918023283184617,-0.17296321058122707,0.33123928429601895,0.08116552116618951,-0.22135474509485795,0.06936484399363822
120,288.684,-0.0514309331359518,0.0923160705306517,-0.006086468735789755,0.6976732159684198,-0.1869574396571908,0.3370805840777709,0.08988131658323789,-0.18636360567306035,0.10081995864386567
121,288.691,-0.04652383506314649,0.09096733530971597,-0.0036996254890056743,0.7043548048434803,-0.19839548061301648,0.3448746292941598,0.10478509782826721,-0.14688084596829376,0.12625759198166742
122,288.698,-0.04156627801738882,0.08954786789894079,-0.0012532533455958668,0.7120900653719845,-0.20716663675103286,0.35408884025099996,0.1205797756722558,-0.10866458604570037,0.14219613094639225
123,288.704,-0.03727146118491494,0.08828846492594117,0.0008967489213779073,0.7195155454458044,-0.21263435424683627,0.3625785820701693,0.13181630500716204,-0.07718608656853972,0.1463747816190199
124,288.711,-0.032202872970193495,0.08678397809790898,0.0034690077682797632,0.7286525159021455,-0.2172190251906224,0.37235251704412153,0.1343870353306881,-0.056387150361294054,0.13838636002452168
125,288.718,-0.027070978649099516,0.08525089503384349,0.0061065020405525194,0.7376030044093724,-0.2208047073992054,0.3812172750332703,0.12638320023746455,-0.04808080057230545,0.11988613842273933
126,288.725,-0.021879583969214297,0.08369324393904627,0.00880074953129377,0.7456526184139164,-0.22423846254253796,0.3885677223208223,0.10814028286658829,-0.05196079345769614,0.094267297913005
127,288.731,-0.017388913957205494,0.08233739687724918,0.011146287728182764,0.7512373855960515,-0.2277105580586169,0.39327834331251654,0.08168897184530849,-0.0660576095679805,0.06584925536857292
128,288.738,-0.012114445059434247,0.08072499215445564,0.013911817351525363,0.7557537280517992,-0.23297650559635166,0.396872977641947,0.04989353173992701,-0.08736444988674802,0.03887951335841779
129,288.745,-0.006816288218841294,0.07907015573001586,0.016696609081069604,0.7580053692593913,-0.23983390138610552,0.39878180222726717,0.015707469551195535,-0.11242405484506938,0.016733611709595298
130,288.752,-0.0015105555452150504,0.0773612553604149,0.01949026864291415,0.7579182517755952,-0.24842334707096358,0.3994066440134619,-0.01824561557006959,-0.13782728873598188,0.001470996859787244
131,288.758,0.0030309415537750958,0.07584437377927415,0.021886278393276913,0.755914114561567,-0.25720384664499274,0.39926327277787926,-0.04987609143615077,-0.16062663705486416,-0.006344262639752151
132,288.765,0.008307022129864422,0.0740031932249638,0.0246794402127288,0.751537478605735,-0.26884774030044245,0.3987829613506608,-0.07763609834844272,-0.1786152813064046,-0.007649490206329046
133,288.772,0.013546394404355153,0.07207692621869911,0.027469442288538603,0.745426028390547,-0.2815142614890765,0.3983604888801413,-0.10041946934385089,-0.19042063349557645,-0.004659139157250984
134,288.779,0.018738187396892682,0.07005996957981361,0.03025736448667856,0.7379433980476872,-0.2947590639063698,0.3981887105878483,-0.11758508712270069,-0.19546335972138268,-0.0003455782624265896
135,288.785,0.02314408238655475,0.06825705302928954,0.03264666546981925,0.7306882651659895,-0.3062131195987841,0.3982449504552458,-0.12902080043533484,-0.19386618340699205,0.002257201749115253
136,288.792,0.028227176351446396,0.06606788925266519,0.035434737196771565,0.7216242962423792,-0.31926224515566337,0.39834697153703,-0.13505565857614857,-0.18631681361109276,0.0007151568555031774
137,288.799,0.033245947185087645,0.06378978422118886,0.03822249144819676,0.712310227654095,-0.3316249066942511,0.3981542431553137,-0.13630739137399667,-0.17386622657312373,-0.006330249870845531
138,288.806,0.03819969608553757,0.061428576413939825,0.04100652840651781,0.7030466010448728,-0.3430058953764197,0.3972848877929905,-0.13358604418002692,-0.15771602139594196,-0.01899820035200198
139,288.812,0.042394904488331824,0.05934434642933985,0.0433853503709878,0.6953561998798691,-0.3517374328202559,0.39565576702655275,-0.1278148475606809,-0.13907365512609507,-0.036376494928920436
140,288.819,0.04723263464708728,0.05685117127088595,0.046143724660617134,0.6868524169064175,-0.36059832673749076,0.39245117286697984,-0.11994073442983265,-0.11908626455606139,-0.05698855137189452
141,288.826,0.05201286912127794,0.054300805281143276,0.048874510610749315,0.678928861432795,-0.36807767033132477,0.38777338431308617,-0.1109100650237995,-0.09882253330278727,-0.07929764375052067
142,288.833,0.05673982821620323,0.051702864880084874,0.05156713967059427,0.6716308799734656,-0.3741910156848308,0.381549204213494,-0.1017147925786342,-0.07928824876861103,-0.10204228082217108
143,288.839,0.060752389224229195,0.04944529751207685,0.05383645809713378,0.6658894560414756,-0.37833144032137994,0.37489027130322916,-0.09343930972327065,-0.06144702224879571,-0.12429844750320293
144,288.846,0.06539190524270751,0.04678404749684194,0.056428300627914284,0.6596865492370944,-0.38202570688805204,0.36563616606210075,-0.08728082273427842,-0.04618450669677954,-0.14531758538182332
145,288.853,0.06998908018070063,0.04410021105014827,0.05895055850908687,0.6537920044742866,-0.3847847064524478,0.35500894284383727,-0.08445525905871672,-0.03419825294354466,-0.16430389503506238
146,288.86,0.07454515643647923,0.04139950035311997,0.061394223500625886,0.6479440686043837,-0.38684692126937215,0.34318105473823934,-0.08592288434102462,-0.025883858012443743,-0.18029865543803472
147,288.866,0.07841711003235831,0.03907425520578452,0.06342042909446813,0.6427071300280429,-0.38823479451275344,0.33222080987901387,-0.09208348808195203,-0.02129070358225118,-0.1922459906023901
148,288.873,0.08289266405023805,0.036351631870543105,0.06569895108314988,0.6360225893652579,-0.3896575869842361,0.3187854726010236,-0.10266892592225459,-0.020161997871255197,-0.19918918794571408
149,288.88,0.08731844352698165,0.033618963219773916,0.06788243431598431,0.6284858325605797,-0.3911048846635462,0.30506687963693924,-0.11691259142050693,-0.0220046566600814,-0.200498573903192
150,288.887,0.09168772321374359,0.030875450136758957,0.06997026148679909,0.6198797922276557,-0.39275599619731044,0.2914551691668582,-0.13382223306572943,-0.026100063351719247,-0.19607519331661122
151,288.893,0.09538174942555101,0.028513829829950106,0.07168522933242535,0.6114622783806045,-0.3944507727426718,0.2802007793779149,-0.15229361169575875,-0.03150630733787565,-0.18646759785047926
152,288.9,0.0996231397327329,0.025744423949046823,0.07360347336445859,0.6003635236704958,-0.39680805037198685,0.267868944059762,-0.17106582035438017,-0.03717238457929536,-0.17281732814052897
153,288.907,0.10378245753936113,0.02295724329749204,0.07543898042446716,0.5880129925081501,-0.39952927864309656,0.25656164451373886,-0.18876380436345014,-0.042109917913918424,-0.1566180053471726
154,288.914,0.10785134807586548,0.020150009061263144,0.07719935538733287,0.5745271607779762,-0.4025376459931582,0.2464026305903918,-0.20414251737199732,-0.04553810955605611,-0.13936231480991604
155,288.92,0.11126139785098693,0.017726615971384727,0.07865468069087501,0.5621560975904146,-0.40526005062912396,0.23870580392134022,-0.21635660609702595,-0.04699789529618623,-0.1222569832859282
156,288.927,0.11514346430600265,0.014878577913544706,0.08029817740903879,0.5470057466990004,-0.408465108753158,0.23086468698225912,-0.22504506351065184,-0.0463806684927218,-0.10619199016067601
157,288.934,0.11891780792749948,0.012008483072763011,0.08189043214870505,0.5313781451564641,-0.41156198861245447,0.2240652386363489,-0.23026118399996987,-0.043846148712053744,-0.09190823034291463
158,288.941,0.12258187613275856,0.009117511153531361,0.08343822276048546,0.5154984849253114,-0.4144299883169913,0.2181606504470447,-0.2323887301259506,-0.03971230264662462,-0.08012046416097315
159,288.947,0.12563387505460985,0.006624391681980472,0.08473380686659099,0.5018344890202655,-0.41660983552933706,0.21370071825273512,-0.23205787515314205,-0.03438188216114558,-0.07147504141562568
160,288.954,0.12909120886937048,0.0037005946373512406,0.0862131467847275,0.4859751723392047,-0.41876074864984647,0.20896782978596348,-0.22999933474450054,-0.028284431601392452,-0.06641647583522725
161,288.961,0.13243815142050816,0.0007632512946390505,0.08766012553267558,0.4702941279851612,-0.4204802064101796,0.20445466962747813,-0.22686395566214881,-0.02181153856264025,-0.06507331231820894
162,288.968,0.1356761534174652,-0.0021845651767078834,0.08907541527681305,0.4548492997161904,-0.42175307111691396,0.19991382869722585,-0.22311723840979544,-0.015273055105460773,-0.06722294817118317
163,288.974,0.13836622423822414,-0.004717215724920541,0.09026257889771894,0.4418409738743442,-0.4224637782912723,0.19580737827326325,-0.21904278707996092,-0.008884265840416176,-0.07235752099963146
164,288.981,0.14140699415263594,-0.007675862285955508,0.09161495000856873,0.42695043024269175,-0.422863810575257,0.19058436768354337,-0.21478946324119252,-0.0027705743222552455,-0.07981358125433945
165,288.988,0.1443445634484891,-0.010635880077718301,0.09292877629422669,0.41235508285760675,-0.42285555849922246,0.1847945710756043,-0.21044231854753698,0.0030109964857732156,-0.08887068934439966
166,288.995,0.14718100326896744,-0.013594487103538402,0.09419979449987147,0.39805629442134033,-0.42246073459163075,0.17835348767978634,-0.20614929272079852,0.008492098938292603,-0.09878865830856579
167,289.001,0.14953330326220277,-0.016127278520106644,0.09525158727718508,0.3860437033274577,-0.4218030709350839,0.1722441047597298,-0.2021651705580009,0.013862244170717712,-0.10887256885481399
168,289.008,0.15218745317570856,-0.01907590410606209,0.09642996781665655,0.3722848433879425,-0.4206613821944416,0.1644360493747368,-0.19869575951074586,0.01940057065803894,-0.11861316451379425
169,289.015,0.15474605201052413,-0.022015168848177093,0.097551421880122,0.35874339513027204,-0.41912854412353023,0.1559793973294479,-0.19583093579035207,0.025258281707018368,-0.12776926971728797
170,289.022,0.15721046219921395,-0.024942265539250507,0.09861155851336165,0.3453738016377412,-0.4171847961825617,0.1469167835959497,-0.1936888140738815,0.031372326560028016,-0.13626770616836764
171,289.028,0.159248625867172,-0.02743929158689462,0.09946832081824182,0.3340140876783705,-0.4151572196948352,0.13867065136274517,-0.19243400256300677,0.037546094025894886,-0.14402278491557868
172,289.035,0.16154053054098577,-0.030335654486735482,0.10040359805305082,0.32081581912509377,-0.412375037401962,0.12855141572535253,-0.19209423820851804,0.043512088588416556,-0.15079860486687724
173,289.042,0.16374005090885482,-0.03321116307164468,0.10126658840600332,0.3076185716992855,-0.409198844006751,0.11801725654861518,-0.1924042522736986,0.0490255085737002,-0.15611147806708983
174,289.049,0.1658471028467428,-0.03606317205404807,0.1020548234312649,0.29439626769685456,-0.4056608652507789,0.10719275066881856,-0.19282425527464928,0.05405261424440421,-0.15925778316421402
175,289.055,0.16757944714547787,-0.03848717583396778,0.10266983931048636,0.28305183187874056,-0.4023403947186008,0.09781254240401917,-0.1927792490841222,0.05881197363430616,-0.15958056512511365
176,289.062,0.16951457390027055,-0.04128886421751056,0.10331651708941023,0.2698415266330586,-0.3981420005787634,0.08695253728838255,-0.19209967769872408,0.06350718559028301,-0.15682295743002872
177,289.069,0.17135738335298387,-0.044060054541205915,0.1038881720414712,0.2566754598560829,-0.3936266633336287,0.07637744901463583,-0.1914903724047786,0.06804603143610649,-0.15127958446724518
178,289.076,0.1731079806257143,-0.04679860775814953,0.10438738090264638,0.2434951894951148,-0.38881711293541676,0.06625365417817024,-0.192513495552422,0.07207901194068389,-0.14367463643557832
179,289.082,0.17453459269634147,-0.04911850631101564,0.10476031373876181,0.23204216738284295,-0.38448240469025485,0.05805729119422596,-0.19678091563201813,0.07526006393069788,-0.13492417097173515
180,289.089,0.1761106323972587,-0.051791539371486665,0.10513537687768576,0.2182548900217521,-0.37924132687234935,0.0491036056411115,-0.20490794887991995,0.07743742248054232,-0.12593920972570885
181,289.096,0.17758785620543688,-0.05442747543763718,0.10544985426271208,0.2038090551717164,-0.3738832634558301,0.04074707579491716,-0.21596782273643578,0.07866840997616203,-0.11752618937121201
182,289.103,0.1789612272684739,-0.05702569786895352,0.1057077031770316,0.1885826771242954,-0.36846600263402324,0.03292404258203452,-0.2276488789742869,0.07916212402162903,-0.11039591925266061
183,289.109,0.18005170454260053,-0.059222515075237896,0.10588621172125451,0.17490974758628114,-0.3638063994642098,0.0265788054925502,-0.23710138532182953,0.07922030592251905,-0.10528211859288768
184,289.116,0.18121848972091967,-0.06175013162100289,0.10604723763377191,0.1584574462189509,-0.3583697564681295,0.019428598083818176,-0.24223228453684517,0.07917492285667992,-0.103037379145219
185,289.123,0.1822694847362391,-0.06423967371954262,0.10615831328337652,0.14182684387210567,-0.35292798597128533,0.012307301803190245,-0.24229613959614696,0.07936969436997804,-0.10443980013393904
186,289.13,0.18320468199626755,-0.06669102378080383,0.10621873397413285,0.12537237327869072,-0.3474577458171302,0.004955752698605956,-0.23710073011990462,0.08000437917490447,-0.10974573736442135
187,289.136,0.18391598442802598,-0.06876158391174167,0.10622832744053763,0.1117284373063202,-0.34272896449218937,-0.0017579305636948473,-0.22666402720651366,0.08072945364664169,-0.1184559850133783
188,289.143,0.18464525347283994,-0.07114131215874776,0.10618622678916315,0.09663414692778133,-0.3371933918003027,-0.010270826971961008,-0.21310433343653887,0.08054806698411589,-0.12956511461447504
189,289.15,0.18527172395705072,-0.0734825720097624,0.10608170450697987,0.08235741998945699,-0.33173799420339967,-0.019592682223239156,-0.20284452162796593,0.07839357238156726,-0.14202479780709568
190,289.157,0.1857991510784963,-0.07578645152378348,0.10590887334476731,0.06833604328059888,-0.3265132955164386,-0.029787649837458248,-0.20566476860870572,0.07382671216171555,-0.15500302410709546
191,289.163,0.18617068546062548,-0.07773307843845628,0.10570166291960244,0.055508750761876974,-0.3223623427047289,-0.039282491883838755,-0.23034183638758618,0.0672664172178335,-0.1677317883699879
192,289.17,0.18649793325871175,-0.07997433959240852,0.1053850336125572,0.03799062011984855,-0.3179979869954527,-0.051183024414736746,-0.2800445018046728,0.05988799066641218,-0.17898723919627688
193,289.177,0.18668815042064787,-0.08218670766249261,0.10498283812574274,0.016357140433293026,-0.3141071758852659,-0.06372997181788202,-0.35024149760942935,0.05346981421042547,-0.18656492338542044
194,289.184,0.18670894961189485,-0.08437303740147245,0.10449179612712178,-0.010414514362730071,-0.3105584638228136,-0.07656774207372234,-0.4297439436401008,0.0499210207972986,-0.18746028999620304
195,289.19,0.1865640137140518,-0.08622754600563706,0.10400003187362229,-0.03789745158518153,-0.3076110709016264,-0.08735367576020986,-0.5044159452305669,0.05026245746153709,-0.17915942507939014
196,289.197,0.18617064381749232,-0.08836832316902891,0.10334765334290348,-0.07449394743173299,-0.3040395472098937,-0.09904019015931773,-0.5618137734231837,0.05379298863823653,-0.1613242379480893
197,289.204,0.18551036891231817,-0.0904831112605434,0.10261859299701637,-0.11415602547502984,-0.30018562179381425,-0.10926276580828168,-0.5937309128944396,0.05849016080122288,-0.13650793712718087
198,289.211,0.18456841587988518,-0.09256989369758646,0.10182423177385468,-0.1549734123627782,-0.2960379316466336,-0.11769758366632511,-0.5954734065569878,0.06235175032694514,-0.1092383635401481
199,289.217,0.18353619537316718,-0.09433495202920435,0.10110098045666605,-0.18910008987817561,-0.2923148455620922,-0.1233861887310202,-0.5645108053657986,0.06419795776429653,-0.0841203969173581
200,289.224,0.1820845005531738,-0.09636582309869321,0.1002194550205557,-0.2256698586910623,-0.2879340314343108,-0.12847822158604427,-0.5009402278721584,0.06343596201108194,-0.06423470191923114
201,289.231,0.1803955907625847,-0.09836656458105969,0.09930631335128601,-0.25687579576261416,-0.28370639209855897,-0.1324193982051105,-0.40823691421377556,0.059735248654241103,-0.05059048941415483
202,289.238,0.17851330992333714,-0.10033894149754156,0.0983681889207755,-0.2809187297363116,-0.2798298697530006,-0.13561615336912802,-0.29224793094392776,0.05320625665245226,-0.04254616971919482
203,289.244,0.17678793007491098,-0.10200928729507448,0.09754732283216651,-0.2942078864029993,-0.27695206275531176,-0.13800587616589963,-0.15945768604808733,0.04461195845923555,-0.03868179962678277
204,289.251,0.17470737229305003,-0.10393836278097474,0.09657212551752563,-0.3002371941331054,-0.2742123617917,-0.14062192801927295,-0.016204680965281274,0.035208541292959576,-0.03753621434166006
205,289.258,0.172619540153083,-0.10585042410016178,0.09557869568602503,-0.29628627442847794,-0.27209087226135137,-0.14321516669497836,0.13131373465041626,0.026600523557265554,-0.03801714342223505
206,289.265,0.17059452663815117,-0.10774934765414045,0.09456681100098611,-0.28228901555163594,-0.27045871458930937,-0.14589474331593574,0.2764928886054359,0.020951980451773232,-0.040051648700762464
207,289.271,0.16896131272449888,-0.10936840471430723,0.09368385561897805,-0.26211562232986463,-0.26922697213037516,-0.14842371735201298,0.4092116493585977,0.02091561140097707,-0.045909545525099876
208,289.278,0.16723699827213032,-0.11124700208941699,0.09263205172303511,-0.2305456497750834,-0.26751513504345675,-0.1520916814886116,0.5105715751372781,0.028958332356348003,-0.0609556687237152
209,289.285,0.16575107038519785,-0.11311046435297131,0.09154905150567277,-0.1940051750624589,-0.2649026545431116,-0.15733695204326237,0.5540259818440526,0.04715563113761574,-0.09186397201997888
210,289.292,0.16452192684242564,-0.11494985892768994,0.09041952009186607,-0.15717869430363027,-0.2606386525232443,-0.16538630904675664,0.5189042894981014,0.07707499720128592,-0.14265202342491637
211,289.298,0.16366051285529837,-0.1164964653086534,0.0893959634194993,-0.12995930140408657,-0.25489680779544666,-0.1757992484072027,0.4062975854001809,0.11809340817568499,-0.21128941292682282
212,289.305,0.16282858047688545,-0.11824664334271413,0.08810525619839489,-0.10773566385657575,-0.2451540590786908,-0.19297424333665392,0.24118251512912287,0.16575912969399362,-0.2890997524263939
213,289.312,0.16211050437031446,-0.11991723334942002,0.08667609789591804,-0.09742893802070238,-0.23215737140836232,-0.21535670022786674,0.05910135451519325,0.2128961026612874,-0.3630075098088339
214,289.319,0.16142252677500643,-0.1214864308875768,0.08507464951993729,-0.0991360892100198,-0.2161847823503972,-0.24219997862345005,-0.1088387758223443,0.2524612694995481,-0.41906466703222045
215,289.325,0.1607967435760938,-0.12273657958676985,0.08354512453051538,-0.1094583104285015,-0.20053145071591344,-0.2676416845195826,-0.24201910186032347,0.27960393232973146,-0.44571266590859354
216,289.332,0.159961857908292,-0.12407161347174774,0.08156569305702455,-0.12908045180040903,-0.18090680213463606,-0.297910165048821,-0.3296670607186699,0.2921552771647984,-0.4361519151728091
217,289.339,0.15897430006859867,-0.12526799251280185,0.0793811351498036,-0.15307893096891734,-0.16091578102344165,-0.3262492370138595,-0.36952260485057314,0.2902781040081851,-0.38949983178368697
218,289.346,0.15781428499175001,-0.1263263677993442,0.07701329619582148,-0.178353948130458,-0.14147715798844163,-0.35027617840912134,-0.3668586746608546,0.27606129789871703,-0.31051907361635656
219,289.352,0.1566824522344403,-0.12712852978774167,0.07486585137527299,-0.19892363764121865,-0.12591017147864114,-0.36553876177707284,-0.3323161883439202,0.253068986478844,-0.20826438346032913
220,289.359,0.15521656386225524,-0.1279524049543808,0.07227072598990768,-0.2199016115542145,-0.10948273327522548,-0.37592563404105817,-0.27887181492735497,0.22554030134126984,-0.09435453224564253
221,289.366,0.15361741803383733,-0.1286679683892868,0.06963015352032598,-0.23699719656485932,-0.09496396241205916,-0.3785236429817444,-0.2192037623779171,0.19746044270649182,0.018662194009143745
222,289.373,0.15191241491774576,-0.12928834317327415,0.06699700404714427,-0.25014655088952803,-0.08228597586991508,-0.3738047779267776,-0.16389937462341275,0.17190951229153856,0.11882075465946164
223,289.379,0.15038643118231138,-0.12975358270107015,0.0647819828595677,-0.2585146942528433,-0.07279386672801334,-0.36453561792855627,-0.12053834071177046,0.15073240728536114,0.196243003034792
224,289.386,0.14855112020953387,-0.13022888142153388,0.06228317716920943,-0.26585986939749773,-0.06300576769009739,-0.3494088650304367,-0.09346149306426643,0.13444140080576555,0.2444711449627041
225,289.393,0.1466687944390288,-0.1306390707812661,0.0598980689631648,-0.2719474936079335,-0.05419119223426438,-0.33205062241593414,-0.08389990996271422,0.12236904213414294,0.26125689569283184
226,289.4,0.144744227005613,-0.1309901265946675,0.05763495749160506,-0.2779289159390426,-0.046110468737491576,-0.31455265517209846,-0.09036732797145165,0.11306080821571513,0.24854198695525895
227,289.406,0.1430590260291402,-0.13124756311292102,0.05578825719902347,-0.28380474288255153,-0.03970170401327406,-0.30101410901882586,-0.10935520532588137,0.10477656826476549,0.21164051346394588
228,289.413,0.14104288655776706,-0.13150136061106826,0.05372555995517759,-0.2922351060807886,-0.032811866885887775,-0.2883279606510058,-0.13626130994636676,0.09595710669432173,0.1579672342760643
229,289.42,0.13896088597921882,-0.13170923922137923,0.051737746498795846,-0.3026222020754225,-0.026582021774344364,-0.2796187411719443,-0.1663641240958826,0.08554786657932308,0.09577368872896025
230,289.427,0.13679904851908972,-0.13187625011035192,0.049795900968148316,-0.31504564367530635,-0.02113537507496384,-0.2751942675840959,-0.19558972791488724,0.07313881758402192,0.03313223845442423
231,289.433,0.1348720200230493,-0.13199140115991598,0.04814564220152383,-0.32729718834118654,-0.017248308113232323,-0.27489198795998415,-0.2208468964144461,0.05898468914354839,-0.022857590669055877
232,289.44,0.13252558216125493,-0.13209977356076733,0.04621063511512851,-0.343113629313866,-0.013715234987127557,-0.2779671795811406,-0.2399611404837857,0.04395050937996786,-0.0667373451625116
233,289.447,0.1300647446816971,-0.13218697696916035,0.04424540978382717,-0.3599827934164385,-0.011200024553720624,-0.2835257722188408,-0.2515177205095329,0.02932951513415952,-0.09521085580887725
234,289.454,0.1274840336623112,-0.13225986846706958,0.04223638962423309,-0.37736321212186036,-0.009626117706049101,-0.29047998766477257,-0.25485641498334827,0.016525865731168703,-0.10739846529835442
235,289.46,0.1251752816021341,-0.13231557335646604,0.040474785889818954,-0.3922208079407913,-0.008942178759527247,-0.2967212571426977,-0.2501612964335887,0.006721588684119818,-0.10474565724279476
236,289.467,0.12237103863267612,-0.13237728178666508,0.0383742707428562,-0.40899146904662964,-0.008688801297330396,-0.30342592770337345,-0.2384477044798255,0.0006605000645986379,-0.0905932362826913
237,289.474,0.11945286208950091,-0.13243819195768863,0.03623106127467529,-0.4247732575742624,-0.008714104709384884,-0.3089196346335924,-0.22135074213173703,-0.0013977086221873339,-0.06946453589129258
238,289.481,0.11642873561840164,-0.13249931094053546,0.03405473369944869,-0.4392628770249128,-0.00874846181826494,-0.31288824400213583,-0.20080068283106395,0.0003967228805869348,-0.046159901710906
239,289.487,0.11375966129437551,-0.13255127479832726,0.03217113813747479,-0.45042856431288125,-0.008572824112249734,-0.31497694331950016,-0.17872706238655608,0.005573297667183101,-0.02483611688716679
240,289.494,0.11056634919742168,-0.13260900351187377,0.0299623203499014,-0.46194632053041645,-0.00792109404387976,-0.316113853129589,-0.1568398733888604,0.013414694252862645,-0.008287464999702936
241,289.501,0.10729748845035877,-0.13266007007779412,0.027748822301753573,-0.472013892923045,-0.006669353362043293,-0.31631416063161666,-0.13647632073023627,0.023054456253484325,0.0024515562168400456
242,289.508,0.10396276185377695,-0.13269995091356007,0.025535891398324916,-0.4807651346710797,-0.004725171142507003,-0.31595181177611875,-0.11848891053130348,0.03358880461060574,0.008105386717586807
243,289.514,0.10105860787339568,-0.13272143902127362,0.023641838992628776,-0.4872861921180545,-0.002437531428637998,-0.3153989901195797,-0.10316535628232784,0.044169305578503425,0.010685320150928424
244,289.521,0.0976243657388842,-0.13272669750768035,0.02143685184499678,-0.49392584631309683,0.000935106740999927,-0.31459733777482546,-0.09027930175329343,0.0540916607667977,0.012670619652417536
245,289.528,0.09414651094657275,-0.13270610195403842,0.01923813628139751,-0.49974695148946185,0.0049493371566900445,-0.31360710896737465,-0.07931713612627603,0.06286193459049992,0.016179448048001848
246,289.535,0.09063037801901289,-0.1326554715915744,0.017047524525815913,-0.5048624563840698,0.009516480690164494,-0.312281964055491,-0.06972181469075112,0.07020064564029643,0.022428316271768427
247,289.541,0.08758966141707218,-0.13258546708815025,0.015178601718099241,-0.508709744267596,0.013818353784659027,-0.3106923051863269,-0.061049579670703256,0.0760223457147109,0.0316050477948468
248,289.548,0.08401499009893114,-0.13246994265417678,0.01301273012766482,-0.5126249180576855,0.0191886273505986,-0.3081281492230659,-0.053018025768658834,0.0804392263799023,0.04310099244342187
249,289.555,0.08041479565358034,-0.1323158954339973,0.01086772691984907,-0.5160020663275204,0.02482486412922029,-0.30472991015242495,-0.0453743412135863,0.08377111714406688,0.05590584972529686
250,289.562,0.07679279820093597,-0.1321216670469907,0.008749616191798799,-0.5188543487129887,0.030668960729775797,-0.3004445835757915,-0.03772618999930734,0.08649517010711569,0.06894606422027989
251,289.568,0.07367372924327299,-0.13192215688498504,0.006960204653854359,-0.5208353038462245,0.035834426605748995,-0.2960259290751582,-0.02960754555242099,0.08908180660417953,0.0812463902418824
252,289.575,0.07002183684870722,-0.13164958814562844,0.004908828311005355,-0.5225625231718223,0.04204235606751211,-0.29008159745270984,-0.020714555866998278,0.09178465971521109,0.09194021920736459
253,289.582,0.0663600800147201,-0.13133291009413853,0.0029013457902665506,-0.5236537151094657,0.04843708721525256,-0.2834848370436815,-0.011077047284001017,0.09452422682710988,0.10025473914155836
254,289.589,0.06269303918244261,-0.1309708523430952,0.0009416777857302709,-0.524072236969069,0.055007984511343984,-0.2764203071091412,-0.0011164820223660199,0.09691721621953198,0.10556856689597058
255,289.595,0.05954924939689338,-0.13062356342708115,-0.0006980350558901849,-0.5238576915423387,0.060754987492784726,-0.27015064009506773,0.008408997024234468,0.09842652098645585,0.10754080324379926
256,289.602,0.05588525174202823,-0.13017461313033704,-0.002563407375122493,-0.5229987812840292,0.06751652586362765,-0.26281287968953876,0.01661513771570102,0.09856920191274308,0.10624300397108137
257,289.609,0.052228996550687204,-0.12967849283194047,-0.004378055814926677,-0.5216455590983732,0.0742321308210029,-0.25565810311128606,0.022810650926411647,0.0970882625154167,0.10220961537388408
258,289.616,0.0485834333230154,-0.12913590877332723,-0.006143808048915409,-0.5199439345213973,0.08079188592552429,-0.24884253517084823,0.02676575391766702,0.09402855557716634,0.09636024546931833
259,289.622,0.04546867507281506,-0.12863493825436306,-0.0076204317734147355,-0.518308815540427,0.0861982870617333,-0.2433653729932438,0.028812823916846267,0.08973794083711038,0.08981145698355095
260,289.629,0.04184754656821881,-0.1280105838305961,-0.009303153260249405,-0.5162993286291906,0.09218869115727177,-0.2374121946734612,0.029733072744674374,0.08479097854876386,0.08363289877149702
261,289.636,0.03824067432433808,-0.127345496181476,-0.01094554971292672,-0.5142355981931396,0.09783635144833752,-0.2318439346625792,0.030393195394061354,0.07975218614230142,0.0785969586904739
262,289.643,0.03464844535529271,-0.12664205756757807,-0.012550007245125092,-0.5121155358274228,0.10314610966684402,-0.2265725031117791,0.03137428937341781,0.07494628649895517,0.07498487610935603
263,289.649,0.031581429088932376,-0.1260103416120672,-0.013896419734816945,-0.5102232196211406,0.10742587550244458,-0.22223166011669562,0.03294656114716851,0.07052526717738071,0.07256272322588249
264,289.656,0.02801805700963324,-0.12524187921112517,-0.015434818008230083,-0.507883088749313,0.1121348104808346,-0.21731070371531527,0.035232564295432506,0.06666837120318335,0.07080810608387422
265,289.663,0.024471702816247762,-0.12444128312944018,-0.01693916249630972,-0.5053609665029568,0.11660692714328497,-0.21250200716427348,0.03824883415370655,0.06362562499756326,0.06929206066997937
266,289.67,0.02094380440535439,-0.12360998649869874,-0.01841018811704447,-0.5026100080372866,0.1209063959255273,-0.20779102733106833,0.041899650094029586,0.06163831855791778,0.0679611540422464
267,289.676,0.017935906476274452,-0.1228737383942453,-0.019645012389561126,-0.50002263499407,0.12450963889343847,-0.20381706350975118,0.046046557946053064,0.060837857231915385,0.06711602390454939
268,289.683,0.014447354896306731,-0.12198751586802202,-0.02105560708936792,-0.49670638785313787,0.12869679717017446,-0.1992099935776158,0.0505714699353104,0.061153947942066786,0.0671098019273997
269,289.69,0.010983134416368785,-0.12107181095411072,-0.022433848021452957,-0.49307089212842486,0.1329331782328648,-0.19457312987497039,0.05534778528466484,0.062271950742931056,0.0679840579284006
270,289.697,0.007545517430096979,-0.12012614756827009,-0.023779370685181694,-0.489105389662818,0.13725636057855145,-0.18986191690439444,0.06018613348048768,0.06368288153002523,0.06927594918259292
271,289.703,0.004621919300886982,-0.11929126882043145,-0.02490624123347099,-0.4854273200784267,0.14103655536896642,-0.18576159919380322,0.06483343944225982,0.06480798233727339,0.07009606574640925
272,289.71,0.0012400023674359723,-0.11828840497111137,-0.0261898123393494,-0.48083466090688565,0.1454959730079925,-0.18097300248547923,0.06897253249770736,0.06511603100419523,0.06941849713608297
273,289.717,-0.0021088822430485443,-0.11725439701795247,-0.027440299333585293,-0.4759895135165782,0.14993487075148285,-0.17630899586737836,0.07218962030688317,0.06421014033251939,0.06646616474707154
274,289.724,-0.005423242986354388,-0.11618969931837513,-0.02865914125684456,-0.4709706988558433,0.15426447198468235,-0.17193155363501975,0.07403228482108928,0.06193170461661272,0.0610695157017049
275,289.73,-0.00823598044238576,-0.11525348787531657,-0.029680587566080087,-0.46660845315013716,0.1578060090333478,-0.1685505494418644,0.07424280421493361,0.05844705362901764,0.053852644027975495
276,289.737,-0.011484548284876153,-0.11413531070613801,-0.030848425598669172,-0.4615537875607405,0.1616731821602961,-0.16511745986906434,0.07302360871894394,0.05422206454066591,0.04616955877165878
277,289.744,-0.014698110333911316,-0.11299109179208018,-0.031993919250822754,-0.456606797877221,0.16524650757028053,-0.1621664407460108,0.07110569373007762,0.04988587416803417,0.03980764250215395
278,289.751,-0.01787746115531659,-0.1118228398317869,-0.0331199197489448,-0.4517791511024423,0.16853976680170007,-0.1595479872912414,0.06954658303589151,0.046062406741754644,0.036480341520023725
279,289.757,-0.0205758691230397,-0.11080371795624361,-0.03407070268024785,-0.4476901714676325,0.17116752504443836,-0.1573796564749304,0.06944004456851575,0.04325651605470636,0.037222394762690694
280,289.764,-0.023692750840330283,-0.10959532768226912,-0.035162843595553335,-0.44284746204332665,0.1740868389480265,-0.15466060504069934,0.07165107870868959,0.041796961609825434,0.04199648613457619
281,289.771,-0.026774894209419305,-0.10836668100072484,-0.036234436171733025,-0.4377649291243365,0.17695507006437405,-0.151508702438994,0.07642724187658433,0.04176823187318224,0.04983340485639381
282,289.778,-0.029820074698347028,-0.10711780739063806,-0.03728186517227526,-0.4322866391401058,0.17986596138873773,-0.14775672628714429,0.08318136144657731,0.04303985606019811,0.059479478364891064
283,289.784,-0.03239842775095498,-0.1060308003986986,-0.03815696968649919,-0.4271643783999174,0.18246970259278464,-0.14394477845553677,0.09092704934992227,0.04546271461239449,0.07009068853292558
284,289.791,-0.03536576824139278,-0.10474216669947838,-0.039146375280463504,-0.42064719029599085,0.18571135432701452,-0.13874253410549292,0.09894958986710704,0.04898199482245875,0.08147539454161025
285,289.798,-0.038285548515551535,-0.10342987189539597,-0.04009651900623658,-0.4135757451773427,0.18923001826769115,-0.1327271018294773,0.10707518832329264,0.05353339570114706,0.09378271459894587
286,289.805,-0.04115384116984516,-0.1020917573722503,-0.041001493598486996,-0.40593644176310706,0.19308841691651074,-0.12583706738474323,0.11549399874379809,0.058880080251157464,0.10695670915153069
287,289.811,-0.0435682923388614,-0.10092233554697438,-0.04173645386944539,-0.3988806145794208,0.19671885817729406,-0.11914968960254033,0.12433738042983801,0.06452058021224817,0.12035087574356026
288,289.818,-0.04632950178723623,-0.09952917794042478,-0.042540104945870225,-0.39003637066996794,0.2013261722651682,-0.11046490366153389,0.13333744545570397,0.0697123590358521,0.1326781822644602
289,289.825,-0.04902669748241635,-0.09810267550129768,-0.0432803293081523,-0.3805909708095153,0.20624595319942388,-0.10102777127605152,0.14185190813732854,0.07362422333433716,0.14227030052092743
290,289.832,-0.05165587712701437,-0.09664103386309927,-0.04395271274609791,-0.37060321336080904,0.21136594342839696,-0.09108178242255634,0.14913889762637325,0.07554540657334004,0.14750358770763103
291,289.838,-0.05385269342954348,-0.0953595483542773,-0.044473189241269376,-0.3616688874787305,0.21579589284355463,-0.08241038263377096,0.1545436675049713,0.07503096813621993,0.14724197741888972
292,289.845,-0.05634688951826219,-0.09383132004417481,-0.04501540717481191,-0.3509585664403918,0.22084076718541623,-0.07250902694969853,0.15749884703745015,0.07195017925889326,0.14123153462404178
293,289.852,-0.05876575103477764,-0.09226880483308057,-0.04549034544863929,-0.34014472399771295,0.2255921502733862,-0.06318762271627143,0.1575597376331246,0.06648017413847773,0.13034523750787544
294,289.859,-0.061109260058125316,-0.0906745795110368,-0.045903008152716945,-0.3294292826725734,0.22990079888165116,-0.054716007020117266,0.15463195517975287,0.05905122134350634,0.11647315893442528
295,289.865,-0.06305901810913644,-0.08928552623798505,-0.04621202341714454,-0.32049006766136423,0.2331169588000551,-0.04828908112192328,0.1492167940929836,0.050267792400180325,0.10198152566440308
296,289.872,-0.0652674175446182,-0.08764275705935169,-0.046527106297036165,-0.31048119961868736,0.2362456636662826,-0.04173459884704797,0.14238906352607295,0.040886238391615815,0.08898166986022644
297,289.879,-0.06740740334482263,-0.08598030556342535,-0.04679909973661242,-0.3009433147249978,0.23874047802661777,-0.035977812460398724,0.13549481829122878,0.031799551654158854,0.07874085622870697
298,289.886,-0.06948213532622474,-0.08430242942518454,-0.04703291152235917,-0.2918372513894652,0.24065270432755925,-0.030825554895769124,0.12980805084133723,0.023912681544454032,0.07136887440235655
299,289.892,-0.0712105538485663,-0.08285481477384345,-0.04720575414353357,-0.28430225606042847,0.2418855127884045,-0.02678865216263411,0.12631051255092304,0.017991144289751574,0.06584763117137774
300,289.899,-0.073170408221444,-0.08115770247882696,-0.0473780954061787,-0.2756561361899423,0.24300371435881749,-0.022451708593082178,0.1255920191999076,0.014587377731010844,0.060508130904031225
301,289.906,-0.07506955654195684,-0.0794532444531574,-0.047521521362986395,-0.26695766967048135,0.24398429297499477,-0.018527136209087258,0.12783561902676902,0.013981534069410223,0.053833300209174456
302,289.913,-0.07690693801777089,-0.07774173961739624,-0.047639315800032216,-0.2580084662760151,0.24501708867070648,-0.015128417232551034,0.13289717510373997,0.016108709233740855,0.04518752389731872
303,289.919,-0.07843086544887092,-0.07626840304274857,-0.04772299930218552,-0.24996734409304608,0.2460951028808254,-0.012766083485348146,0.14042491358120984,0.020533576362393398,0.035109476852648154
304,289.926,-0.08014576411754464,-0.07454008971497167,-0.0478051294736769,-0.24000370409909516,0.247708705055077,-0.01069967979788556,0.1498632361930702,0.026478317877023986,0.025094675794822413
305,289.933,-0.0817885213145698,-0.07279899733423606,-0.0478749563622884,-0.2293554950506166,0.24974626086902588,-0.009250859805385975,0.16036966111847603,0.03288535921810807,0.017116330949101352
306,289.94,-0.08335421309721068,-0.07104218976230453,-0.04793607044592562,-0.21798501427502837,0.2521987596824822,-0.00821030694809321,0.1709064416304629,0.03856757799299816,0.013199915309218149
307,289.946,-0.08463110116699614,-0.06952184413497405,-0.04798283349051883,-0.2076443423180943,0.25458311609192424,-0.007377374582901528,0.1805785866202538,0.04247798494747899,0.015111905927313705
308,289.953,-0.0860402156257152,-0.06772937434357584,-0.04802977264468289,-0.19495978874747763,0.25755111002563946,-0.006033812321213982,0.18898269710662277,0.043993773174005525,0.024032443255492895
309,289.96,-0.08735864121550307,-0.06591605574507395,-0.04806429438391406,-0.181733236905932,0.2605399181173892,-0.0038295417448289326,0.19636957016787776,0.04308440021555596,0.040188426588176576
310,289.967,-0.08858272837942706,-0.06408225451129376,-0.0480787540989949,-0.16800595278638494,0.2634032915337196,-0.0003018054211204142,0.20357140631345277,0.04033926539701666,0.06259128553737081
311,289.973,-0.08955411432616561,-0.06249502064346378,-0.04806718033914783,-0.15578936279158584,0.2656746644070806,0.004159725370124455,0.2116770898512509,0.03686592609209739,0.08905855721299301
312,289.98,-0.09059259979868481,-0.0606267810087481,-0.04801335777748008,-0.14092077221368624,0.2681080883684483,0.011218149392078422,0.22151556376029932,0.03403127009229863,0.11658685459426964
313,289.987,-0.09152442745461936,-0.05874196395935952,-0.04790377746832818,-0.1253157009102818,0.2704110685993336,0.02009051036558422,0.23313427088960784,0.033065480753408,0.1419071548934456
314,289.994,-0.09234413588759437,-0.05684095170683913,-0.04772664049267969,-0.10888670851098033,0.272735289263246,0.030520054105377253,0.2455202980374461,0.03465010477596461,0.16195498354717763
315,290.0,-0.0929531264926267,-0.05519807281143937,-0.04751385237501623,-0.09411015983408533,0.27489100920591525,0.04040931844944273,0.25674257722116006,0.03862398109703699,0.17418645599000557
316,290.007,-0.0935492803257079,-0.05326391882352302,-0.047188820580085514,-0.07621950676042429,0.2777244159126459,0.05245690867355221,0.2644971084920551,0.04392661195472278,0.17681706054799592
317,290.014,-0.09401899167678886,-0.05130870605174756,-0.04678008338044845,-0.05798373640546717,0.28090780459423037,0.06432514836552482,0.26679748256733804,0.048820618068700215,0.16896112326354656
318,290.021,-0.09436130703844856,-0.049330329789994985,-0.04629141391872183,-0.03982065264008995,0.2843425559061019,0.07529469784198008,0.26237940295317924,0.051249999081589406,0.15063394674208153
319,290.027,-0.09455496184892825,-0.04761541039623318,-0.04581552049421135,-0.024730950853445045,0.2872972420171858,0.08333644366225895,0.25052771574402494,0.049181378643315295,0.12270933971206516
320,290.034,-0.0946702767121992,-0.04559350621129107,-0.04520698391258193,-0.00821615293823208,0.29038966796586363,0.09053115108887967,0.23062677534696696,0.040915674993775145,0.0869066548751524
321,290.041,-0.09467580519898801,-0.043552816847333344,-0.044557327712293454,0.006636585284289268,0.292664436021641,0.09508490613626633,0.20210402387049514,0.0253591212130475,0.04576585517475993
322,290.048,-0.09458526545525384,-0.04150085571005865,-0.043885935647890284,0.019231912925454134,0.2936101746278535,0.09674139797878853,0.1648576847996672,0.0021947356439049304,0.0024956187819362113
323,290.054,-0.09444477649007282,-0.0397414791811383,-0.043308746970436005,0.027597742135105262,0.29284866834834994,0.09565482784020854,0.11950137120452171,-0.02807874562716988,-0.03942872501036588
324,290.061,-0.09422918853346049,-0.03770263385706768,-0.04265313495425308,0.03399881689694561,0.2896785670999832,0.09166289106906327,0.06699233494198602,-0.06428135836536837,-0.07687535061011079
325,290.068,-0.0939821807469678,-0.03569520657278206,-0.04203366266190753,0.036574836386627924,0.2838720855526425,0.08532919245811182,0.008059346160137154,-0.10488902375395312,-0.10765536829555648
326,290.075,-0.09373203416651783,-0.03373853802015307,-0.04146500921302526,0.03489561517045469,0.2751760723409549,0.07714322150813407,-0.05698303471176968,-0.14846713796666852,-0.1308408401802346
327,290.081,-0.09353899511385592,-0.03211770669049893,-0.041026631121437944,0.029450735716543136,0.26510103754117986,0.06898280902027411,-0.1280913605161473,-0.19398873975327896,-0.14653599043371965
328,290.088,-0.09337289704975578,-0.030314244064223395,-0.04058000061403721,0.018005854026320385,0.2501739985371769,0.05862590737984415,-0.20535239420173934,-0.24090679407885962,-0.15520973867932572
329,290.095,-0.0933062291526079,-0.028626695130333155,-0.040207162010908674,0.0010421165873446651,0.23198283971683284,0.047899407799660496,-0.2888818372043138,-0.28908805111965624,-0.15730413361799975
330,290.102,-0.09337912924788505,-0.02707824337217522,-0.039909217198762434,-0.02187071523811327,0.2104319483315675,0.037227681385610195,-0.37867776559080485,-0.33879175887589164,-0.15361393623778577
331,290.108,-0.09358563354512493,-0.025880039644086503,-0.03971229552996537,-0.046964050508183475,0.18896929436276375,0.028412874879762712,-0.4742582614911712,-0.39073544863810056,-0.146006100703317
332,290.115,-0.0940402930930496,-0.024657815738373445,-0.03954750713932667,-0.08293867747020178,0.16023753584071734,0.01866952244554763,-0.5738534633367365,-0.4463571225698008,-0.13786402632296818
333,290.122,-0.094770700810645,-0.023650857102531953,-0.039449487561061175,-0.1257492418426182,0.12746493154236077,0.009336071344573942,-0.6734215817277526,-0.5084644758450695,-0.13406372826825363
334,290.129,-0.09582394200074698,-0.0228896418415753,-0.039417091688681384,-0.17517681247202016,0.09002514301652687,-8.010780749840435e-05,-0.7666382793830134,-0.582334363304375,-0.14027428732220554
335,290.135,-0.09701739015159075,-0.022460585186890966,-0.03944418413434185,-0.22263923781110734,0.05299374187892321,-0.00895070741269884,-0.8466352081419555,-0.676382974344998,-0.16124218722116115
336,290.142,-0.09878665693721977,-0.022266963132308717,-0.03954998728978423,-0.28286555808253755,0.002326845144536939,-0.021278765570818467,-0.9080435126790385,-0.7997843416920081,-0.197932692160565
337,290.149,-0.10098961451262502,-0.022461599478146417,-0.03975205584073707,-0.3465508920327968,-0.0579372296695543,-0.03645510612995205,-0.9474127032622947,-0.955994348250842,-0.24422617989120562
338,290.156,-0.10364462605961437,-0.023117990529162337,-0.04007029179886903,-0.41202383567790435,-0.12960307062057413,-0.05446945333625694,-0.960125072345096,-1.1319719355891655,-0.28061730332221185
339,290.162,-0.10628348522593954,-0.02410832770952827,-0.040445368418545236,-0.467595886434617,-0.20050932283628708,-0.07055608655639997,-0.9287989658321892,-1.2781698972843152,-0.26617605357399726
340,290.169,-0.10976496856790192,-0.025820391117117987,-0.04098939586286174,-0.5271136398396392,-0.2886516507604263,-0.08488032610534713,-0.8052358372272425,-1.2898346979670492,-0.15115706947259178
341,290.176,-0.11361287584944404,-0.028120611306870474,-0.041591806149350916,-0.5722884406001812,-0.3685541177398143,-0.0872368986057231,-0.5109206414453119,-1.0381036173403009,0.0824989213100316
342,290.183,-0.11767868200123953,-0.030881551769129365,-0.0421453974068745,-0.5893704599119833,-0.42028601433359053,-0.07093203211518717,0.013240297370049522,-0.4690922022235172,0.3925392704279154
343,290.189,-0.12114955618056306,-0.03341605375546783,-0.042475575388406454,-0.567587599857002,-0.4245479811085307,-0.03912729506160623,0.7271708880628738,0.3242256482382172,0.6885209303348011
344,290.196,-0.12485874985016485,-0.03621072961630169,-0.04256198911879841,-0.4921820200284663,-0.3739308362720003,0.014437657806778588,1.469751749082966,1.1504921587453594,0.872080523586672
345,290.203,-0.12788168924797802,-0.03847051990303191,-0.042250348527348554,-0.3715149507816975,-0.27172353136998784,0.07460251117955324,2.045853019041942,1.8272920096584255,0.8808073745879696
346,290.21,-0.1299555349173242,-0.03988406436505896,-0.04153680912166923,-0.22101238331678777,-0.13214631492316747,0.12926589044296471,2.339001499205579,2.2392551495715907,0.7117964565840964
347,290.216,-0.1308686106655035,-0.040272749565531035,-0.04066170647399195,-0.08334619940819518,0.0025845814330937578,0.1624349921147357,2.3403464911185123,2.3403208305241576,0.41563923489779236
348,290.223,-0.13091823759769255,-0.039715972492996465,-0.03946611212384275,0.06916707592561891,0.1564945821480987,0.17916339364193334,2.1030894960856545,2.143808400002211,0.07173854380152175
349,290.23,-0.12997728310912562,-0.03815709764472121,-0.03823225118736265,0.19967706366474103,0.28889823164451434,0.173368302494987,1.699286231144013,1.7137386871076608,-0.24057706946500249
350,290.237,-0.12823046148383707,-0.035791009521524295,-0.03710330761661492,0.2994148292744901,0.3871269464112638,0.14918700343270383,1.2065485299525838,1.1481302565371185,-0.4639390078110119
351,290.243,-0.12626563625702167,-0.03331808992853637,-0.036299577931273884,0.35552691300038436,0.437179584588585,0.11872289168223428,0.7007315206986898,0.5531859651952927,-0.5715526143913612
352,290.25,-0.12366353829953271,-0.030189042578162784,-0.035604985520117656,0.3879296462816454,0.45683394408894246,0.07973208293368828,0.24331397849210382,0.01943886446747637,-0.5644348095510845
353,290.257,-0.12093375948162302,-0.02703589182671298,-0.035170330339868355,0.3920071588348497,0.444066270610358,0.04445511142316517,-0.1245166739458036,-0.3914218258420921,-0.46335089884934944
354,290.264,-0.11825022955846591,-0.02405245182754843,-0.03495083822780291,0.374715676352349,0.4083451577217608,0.01825692059548818,-0.37926632702040375,-0.6493038301033776,-0.2999268136550159
355,290.27,-0.11608076426419874,-0.021726114735298254,-0.034877419914453714,0.34843942174010784,0.3671005396986092,0.006215850521026472,-0.5138777677984044,-0.7526230264461884,-0.10935566556463915
356,290.277,-0.11376812425354275,-0.019333612923332744,-0.03483806223327036,0.3123148670182717,0.3164714065767621,0.005029201245639022,-0.5386020646712633,-0.7224440562203372,0.07478293684377545
357,290.284,-0.11170401706403552,-0.017276555646329447,-0.03476686899042297,0.2774300442690892,0.27125924399518786,0.015311725282171078,-0.47775848801951604,-0.5948009497280141,0.22479581945278157
358,290.291,-0.10986288168941251,-0.015498707190040116,-0.03459397566699995,0.24860863419425225,0.23669745780140117,0.034086367124372144,-0.36194605867121643,-0.4121480140221525,0.3221986570995768
359,290.297,-0.10842266550084287,-0.014133912466567752,-0.03432931362919927,0.23146342866000352,0.21823411668721457,0.05413431214210011,-0.22082874326307855,-0.21543092863745192,0.3592418286127458
360,290.304,-0.106838499368827,-0.012636662290559188,-0.033866443744446605,0.22115546620502427,0.20955164788982872,0.07811422635963997,-0.07949115497086283,-0.03753061997497406,0.3394069517765806
361,290.311,-0.10529470332863099,-0.011162075877290085,-0.03324566815480413,0.219929116707808,0.21175875590104223,0.0992502278237988,0.04376177025406631,0.10183415777001101,0.2763851445237792
362,290.318,-0.10373318194813202,-0.009643861849320602,-0.03249497215799818,0.22621984914871937,0.2220166806613574,0.11523434269203307,0.13951714007447566,0.19702790478980706,0.1893080292256036
363,290.324,-0.10234540445249227,-0.008272187521340317,-0.03177838195486533,0.23637264939565977,0.23520809532988768,0.12362905835111115,0.20558202722159136,0.2513554088618911,0.09603289280308792
364,290.331,-0.1006370109798515,-0.00656299115853166,-0.03090031910058899,0.25173977135849457,0.2531337226150938,0.12724604287052002,0.24213521312985528,0.2709032417241423,0.009347043097734205
365,290.338,-0.09881560347736501,-0.00472698378366373,-0.030016016216785867,0.26866237220870404,0.2714398130610828,0.12541192393019196,0.25090051409015496,0.2624401075330563,-0.06278363795433656
366,290.345,-0.09687620492725561,-0.0027671925424316087,-0.02915951967152959,0.28545149925072766,0.28850054157626603,0.11930137471428359,0.23824648723799985,0.23461993452793806,-0.11524567935014547
367,290.351,-0.09512342841176794,-0.0009978780884069096,-0.028466622660333084,0.29880733924791053,0.301270943101405,0.11166429568563775,0.2157257321996818,0.19945291485484368,-0.14434276416120423
368,290.358,-0.09298218868847492,0.0011554722474459087,-0.02772009713875186,0.31297543883537166,0.3139720099989605,0.10162871048027367,0.19705829226916605,0.17058948050359582,-0.14804149128519214
369,290.365,-0.09074444473512752,0.003392756889326651,-0.02704177071916304,0.3263799764062867,0.32525217339508056,0.09217883797353567,0.19347954454580688,0.15805524806941942,-0.12727817173447142
370,290.372,-0.08841150577778017,0.005708149965479862,-0.026422254428503763,0.34017401140676284,0.33628870550536405,0.08482581650041741,0.20840620209306443,0.16349134415628222,-0.08695026285147657
371,290.378,-0.08633135494274517,0.007756094411155299,-0.025924147492190918,0.3532096002748309,0.3463594430563226,0.08120982893797743,0.23468050839180446,0.17881846775726298,-0.03595910859398753
372,290.385,-0.08379977556498881,0.010224757913682837,-0.02535834170723346,0.37009879336932705,0.3589729862367556,0.08044896676403805,0.257381892252775,0.1886739460763234,0.013791580176643009
373,290.392,-0.08114693357070954,0.012781354506667612,-0.024787598138560938,0.3878560621384933,0.3714831831869436,0.08262062428513697,0.2599716752361528,0.17580750128495182,0.04947911648902702
374,290.399,-0.07837318521189177,0.015418104478033597,-0.024196062488357324,0.40464346895173103,0.38187395148851344,0.08638956148720367,0.2291252076582027,0.12692492449791398,0.06032792267212535
375,290.405,-0.07591123129459121,0.01772376162973466,-0.023668820444806345,0.41600783681897685,0.3866784324154532,0.08935778636394853,0.15715579782614408,0.03638197870764234,0.040563645014387105
376,290.412,-0.0729750588247695,0.020423720698191327,-0.023039514194689855,0.4228985831294842,0.3847384442859002,0.09044399938349168,0.04360436595491806,-0.09290304581302768,-0.008917101392242381
377,290.419,-0.07002206720313213,0.023075611997300106,-0.022417187578967403,0.42081330876630474,0.3729447840303527,0.08736360510850999,-0.10435831100176904,-0.25070228484201923,-0.08082941245235689
378,290.426,-0.06712177745555649,0.025605378481494634,-0.021834987258577552,0.4078409048261437,0.3498456400247106,0.07897934357418575,-0.2735894209717023,-0.42228547654221926,-0.16344394241597213
379,290.432,-0.06473840360230021,0.027614926628733272,-0.021397014603935213,0.3866170462554914,0.32000374238497065,0.06701154130589686,-0.4478210019063435,-0.5920567517619568,-0.2433481244716924
380,290.439,-0.06215931705985011,0.029694093503894663,-0.020994178448914644,0.3502648230154398,0.27404393623214524,0.048084502985611885,-0.6112918956835746,-0.746970661933052,-0.30808638520931697
381,290.446,-0.059871227164008105,0.03141711670846927,-0.020736421390993576,0.3034751472246662,0.21824840793167663,0.025560370706069552,-0.7519135615678157,-0.8786180471988341,-0.3481485538961803
382,290.453,-0.05794069984915205,0.03272113229847804,-0.020642374649866006,0.24810408559543395,0.1543274749307309,0.0013101267591491585,-0.8613084176763649,-0.9837022879503942,-0.3583762152903262
383,290.459,-0.05661047662264923,0.03346638336897264,-0.020696050788046642,0.1953036565700571,0.09408954856628336,-0.01920217281927545,-0.9334066999606373,-1.0638173837064209,-0.33884793289234116
384,290.466,-0.05547148317556884,0.033862242214960425,-0.02090646981506384,0.13012304259553711,0.019012978858716847,-0.040917549185595536,-0.9656141240858275,-1.1235196261655354,-0.2938241057259018
385,290.473,-0.05479156184921007,0.03372106605829579,-0.021255088634538014,0.06414019350682934,-0.05934902362001217,-0.058687827806954154,-0.95677961860512,-1.1595376426607353,-0.2239085005404268
386,290.48,-0.05456449489907135,0.03302961685407351,-0.021706694898025725,0.0007360779613309748,-0.13820789187192667,-0.07034253318944293,-0.8904833697155768,-1.1379956857252693,-0.11564841477375712
387,290.486,-0.05470224695143444,0.032012563546365745,-0.022134782056797524,-0.04665342874924457,-0.2008098773655882,-0.07235318640182686,-0.7203115742186663,-0.9898796333679213,0.047305225461967505
388,290.493,-0.055163214869762445,0.030408394404273127,-0.022605452522173865,-0.08505169077294848,-0.2575241632319748,-0.062124089419889145,-0.39841214965897853,-0.6624768467857387,0.25071694701226194
389,290.5,-0.05579892345045435,0.028504277506192728,-0.022957368679775964,-0.09657933228175056,-0.2865092362191792,-0.03842338418063903,0.06255720840428093,-0.1819959777679686,0.4397971498865095
390,290.507,-0.05639919778331086,0.02651967884855296,-0.023107294415158734,-0.07492761996284451,-0.2805189516774925,-0.004412540214407928,0.5682599941759092,0.3565214139823842,0.5511002503821654
391,290.513,-0.05671078141236573,0.024943128863216753,-0.02303684651640893,-0.028933589722600343,-0.24499771010371224,0.0278951731311197,0.9951019503705739,0.850864783952935,0.5470563863789252
392,290.52,-0.05664248480481714,0.023477656835141514,-0.02272469666652036,0.04844690616503935,-0.17370858363177155,0.06129049826555079,1.2593593703391894,1.226126018116208,0.42590802725605637
393,290.527,-0.05599089295233353,0.02258140901667759,-0.022218433295991147,0.13772219454443074,-0.08236222164345235,0.08335617902840652,1.3416537433373934,1.4352273051973143,0.21697004200860326
394,290.534,-0.054713506016083754,0.022352466503704423,-0.021612304000065957,0.227245501526673,0.016950075079737212,0.08982361980723894,1.2665853300662455,1.4582115267066513,-0.028542778618737316
395,290.54,-0.053143604129940264,0.022698118119280294,-0.021098130257412327,0.29605512718532595,0.0982671301116693,0.08156762774315188,1.0722910330249358,1.3057991202028039,-0.252082853445479
396,290.547,-0.05084666694766239,0.02366509467954936,-0.020606195970572422,0.3602126391793105,0.17801188710786608,0.05898502563957775,0.7969219716763553,1.0175443543385914,-0.4058555893038797
397,290.554,-0.04817161764130485,0.025111719763246863,-0.020298001284432782,0.40408716264279027,0.23530956538019643,0.029070598972399737,0.4813512544014206,0.6518091171105839,-0.46569372140145227
398,290.561,-0.04526471916338833,0.026869876570117787,-0.02020236265809293,0.42645525961847824,0.26702095086828054,-0.001745277161032243,0.17033763530016002,0.27209413769425245,-0.4321190931801971
399,290.567,-0.04269934133496005,0.02849022248652766,-0.020279453348911996,0.42867068318686785,0.27309435459909864,-0.023951619778533766,-0.09503419092384298,-0.06565586261937588,-0.3226864934164998
400,290.574,-0.03974450146572837,0.030355290039916032,-0.020505532398031483,0.41556927945015254,0.2597820892257694,-0.040642394255559336,-0.2866719177358331,-0.32219364688458985,-0.16359503062261496
401,290.581,-0.0369173086390773,0.03207752410684592,-0.020807786188941413,0.39220009959243196,0.23228478703955976,-0.04571583171864486,-0.3941832704041064,-0.47893334889859207,0.015781703861637318
402,290.588,-0.034270120219858737,0.03358143165799781,-0.021103495790228025,0.3641394487551893,0.19740308471781698,-0.038772625791755416,-0.42335674689385333,-0.5373362909221372,0.18650685767232122
403,290.594,-0.03215710301371909,0.03467303247597333,-0.02129108185133967,0.3401996199613361,0.1664638546090652,-0.0237560612457524,-0.39037097167690143,-0.514304861047773,0.3239142866897046
404,290.601,-0.0298605137494901,0.035724397463561805,-0.02136890331872603,0.31596874124647767,0.13392614184457038,0.0015213562782366921,-0.31558959632953404,-0.4336732314993858,0.4125369267790285
405,290.608,-0.02771287777831163,0.03657155370859484,-0.021254745894618454,0.2976415362326462,0.10811849959326778,0.031095050609618327,-0.21836892056077864,-0.31822594628257583,0.44908523285930757
406,290.615,-0.025669490502612437,0.03726785764684698,-0.020930242149144934,0.28618339968099177,0.09082548276434319,0.06162030523989276,-0.11546101121718455,-0.18560175748148047,0.44026039719064014
407,290.621,-0.023964645053960197,0.03779221773096733,-0.020486553500145836,0.2820984165390922,0.08396121194326077,0.08627591109383508,-0.023389773434684666,-0.047718517403917596,0.3977969704819147
408,290.628,-0.02198754775517664,0.03838437314847431,-0.01979465693394571,0.2827865259700917,0.08522605020146967,0.11140882210605953,0.04343766895161942,0.08456926250933082,0.3344440820460416
409,290.635,-0.019993275233370505,0.0390147856241834,-0.018943209774300068,0.2870056231169687,0.09489180000100013,0.1318617949353784,0.07948466718541855,0.1970399312381641,0.26144814645791775
410,290.642,-0.01796395061192798,0.03973592584819316,-0.01796629657415685,0.292801411580481,0.11114826400163987,0.14725626224819835,0.08937417462114497,0.2765880661084796,0.18706579380008373
411,290.648,-0.016192003847440607,0.04045527353197174,-0.017056003786034196,0.29784750991248965,0.1286342972567402,0.15617466712457057,0.08214543475903975,0.3177716542519167,0.11607560774307427
412,290.655,-0.014089244958072417,0.04143259584782961,-0.015942775312483552,0.3029407441971569,0.1506006501332904,0.16189061103511213,0.06624466742977926,0.32221252198746875,0.05045698305963586
413,290.662,-0.011954902714933081,0.042560967362768,-0.014804571754004877,0.306871325270789,0.17179121127744792,0.1633104056728483,0.04827182534747722,0.29516915689201995,-0.009091622739702782
414,290.669,-0.009797085956565997,0.043828298917852254,-0.013669917169504955,0.3096477485479376,0.190303518746366,0.16087661846975485,0.03261856978954384,0.24418227355582792,-0.061816156401177595
415,290.675,-0.007934451017439895,0.04500738501355922,-0.012719498637530094,0.31123056449113173,0.2027251798207463,0.1559295588536863,0.021182199524699703,0.17803669943090372,-0.10633707350046816
416,290.682,-0.005751606775388392,0.04646045656241443,-0.011657675493842012,0.31243921895170945,0.21243811985187427,0.14744848219983447,0.014031644742109767,0.10494736986670883,-0.14075696556910725
417,290.689,-0.003561660190066503,0.047963857171698376,-0.010662066172838623,0.313259805425526,0.21710491137180324,0.1370113238009303,0.009875936157904707,0.031018429432035945,-0.16332702405299948
418,290.696,-0.0013669778235905036,0.049482436034275136,-0.009743434838086828,0.31379229928145425,0.21677476364981887,0.1254547718422521,0.0056381386478320085,-0.040637200425891876,-0.17337021590064622
419,290.702,0.0005159385039031142,0.050769774015483334,-0.009021180028128548,0.31384647655270104,0.2123378967549293,0.11529683147830544,-0.003796623918981786,-0.11017430315961449,-0.17190366675362026
420,290.709,0.00270938611208112,0.05222122993581018,-0.008254164331676937,0.31285284006913844,0.202363794766731,0.10385051036485542,-0.02515272556943106,-0.18041865419049832,-0.1615820251986146
421,290.716,0.004888428102935112,0.0535854315728641,-0.007564159073690278,0.3097305858887001,0.18740810153411092,0.09329384905976344,-0.06581336611139203,-0.25531171339853265,-0.14598365159313756
422,290.723,0.007032799488494942,0.054826019780596105,-0.006944087163528827,0.3029469528422418,0.16704567210335178,0.08386955384338167,-0.1318260796132198,-0.3379425559200157,-0.12859082349337558
423,290.729,0.008818947306432401,0.055760595221238364,-0.006462086886915972,0.2924356531397092,0.1444794747788658,0.07679720502832497,-0.22545867792654495,-0.4290946866515053,-0.11180213485937227
424,290.736,0.010797522149121573,0.05665709831302575,-0.005949504475482067,0.272871444771079,0.11166426573163149,0.06965491252411457,-0.34453962114649656,-0.5269681904256632,-0.09628676412259563
425,290.743,0.012608159766864002,0.05730000493724106,-0.005483248731377496,0.24445358886924534,0.07202334118689771,0.0635610143628104,-0.48340747602920603,-0.6279601940220755,-0.08125742888637023
426,290.75,0.014185153085064269,0.05764126060747275,-0.005055981848610661,0.20611593061622327,0.025478278879230286,0.0585152378561981,-0.6335505722046726,-0.7281185108111367,-0.06575000285225903
427,290.756,0.015296705583390607,0.05765706198157636,-0.004715082588880506,0.16440156882763066,-0.020211154178004467,0.055117848721054324,-0.7843431287971518,-0.8248900108705608,-0.04972908991165599
428,290.763,0.016242224398538216,0.057306189024835336,-0.004339294419364456,0.10574666407149291,-0.08003826203364384,0.05225019971202594,-0.9245527955019085,-0.9181577564417543,-0.03381914402075091
429,290.77,0.01674597121501621,0.05651431673413592,-0.003979759571383909,0.03818099777926044,-0.1462109638803121,0.05047404256805699,-1.043955929035135,-1.0097672986883568,-0.01792874845068964
430,290.777,0.016751496319861427,0.05523714151181526,-0.003628613034973422,-0.0366023963949139,-0.21869624249675965,0.04985353926343913,-1.134839485275443,-1.1020730958076739,-0.0001494595471607443
431,290.783,0.01632642228843292,0.05372224064516716,-0.0033274427800932386,-0.10508894741391223,-0.28627071305019525,0.05053654569614255,-1.193055396213863,-1.1948196777392883,0.02336521731357976
432,290.79,0.015301824092460902,0.05142163610718479,-0.002963849293270012,-0.18765339429216926,-0.37104486923001273,0.05334730768184793,-1.2124390351362353,-1.2750540793470309,0.05852562747624198
433,290.797,0.013702735378722207,0.048515759625574785,-0.0025700575608670877,-0.26922909534713124,-0.4592055540865386,0.0591646158617644,-1.164248534884506,-1.2934853405207674,0.11096018586506401
434,290.804,0.011560445432927707,0.04500766661630682,-0.0021212708746906634,-0.342853746312973,-0.5431067342831604,0.06906015161816365,-0.9807871869802344,-1.150954480482418,0.1773437640485889
435,290.81,0.009364930945256764,0.041581079179286315,-0.001670051622793337,-0.3889844162405136,-0.5990890780515552,0.08134626568022699,-0.5872192143671618,-0.7519156388796995,0.24026789273548735
436,290.817,0.006573941215197623,0.03728459831583851,-0.0010384590483975462,-0.40844122091867086,-0.6284768829326536,0.09910875557558424,0.0203500948515168,-0.10429067829362776,0.27723779095421175
437,290.824,0.0038046223201142876,0.03295110160952114,-0.00027856900798940915,-0.38279274910457395,-0.6096650331571402,0.11800268454087122,0.7269116922034362,0.6523691986417008,0.2732320859812927
438,290.831,0.0013739150731554416,0.028921237915480742,0.0006073120617877962,-0.3116950357403143,-0.5417245937107215,0.13510619253814943,1.3445023370291709,1.3270584476528378,0.22507432555041496
439,290.837,-0.00022593090938712252,0.025944618920574633,0.0014501135912996072,-0.2215869584430463,-0.45048173792931057,0.14582765063377437,1.7183199076616413,1.7743355309854563,0.13935382934703835
440,290.844,-0.0013546281993198437,0.023236618290057662,0.002491054414280798,-0.10089798153750076,-0.32323272793212776,0.15158401307492472,1.79792313457309,1.9330324284266889,0.02835634519621952
441,290.851,-0.0016497847706848242,0.02142414171385534,0.0035444558342052125,0.016567532576138008,-0.19461772241102285,0.14938782118897861,1.6244051284948962,1.8141334676311032,-0.0923418444221688
442,290.858,-0.001185322421514973,0.020457134957651245,0.004554434683691893,0.11613599575801035,-0.08166992221852123,0.139177564378438,1.2764970488702065,1.4765723345518438,-0.20513142438837761
443,290.864,-0.00030196546709145196,0.02018632462503213,0.005345403018809054,0.17831632238454698,-0.008600188654941304,0.12447854732852116,0.8370458574511433,1.0071073985518255,-0.2944961089686103
444,290.871,0.0010929302093536219,0.020307193000174244,0.006139064754296746,0.2202252994566179,0.04313401012409194,0.10228194852494331,0.38396166796829834,0.5001554946014728,-0.35219622454449395
445,290.878,0.002678532695905249,0.020673831291563832,0.006767366717085582,0.23280398241495193,0.06161978741571583,0.07723289798602442,-0.017484897953635295,0.038422985791516505,-0.3776015741475304
446,290.885,0.0042671620293648635,0.02107136708749883,0.007217804719823321,0.2210901128588992,0.0519618685656314,0.05146367422466609,-0.3237957507037074,-0.3198040267929226,-0.3731782905751664
447,290.891,0.0055195899850850935,0.021306808578513123,0.0074635887614149105,0.19638587237918406,0.02651862843875764,0.030464339638805835,-0.5159147341746557,-0.5450254554717404,-0.340600440719754
448,290.898,0.006760794315052312,0.02135076730922703,0.007602223544719086,0.15824393618262503,-0.013958991091936702,0.009145598448072993,-0.5953410010817201,-0.6342798273331615,-0.28051573163610694
449,290.905,0.007727522825091936,0.021104189507473583,0.007609134004003105,0.11796420954502738,-0.05649180940956919,-0.0071711815097670745,-0.5781987219748924,-0.6049031561655716,-0.19486955598463762
450,290.912,0.008425017893775442,0.020577581662860514,0.007524764175391506,0.08132009579297503,-0.09396757476548542,-0.016934483807815433,-0.4894183324007807,-0.4869438588960581,-0.08958180531586139
451,290.918,0.008838203032026728,0.01994289733368228,0.007417399780026569,0.0564082836234624,-0.11759386829291504,-0.018853647980325995,-0.3573476263922721,-0.31612662651662315,0.02434837791365987
452,290.925,0.009164963389519297,0.019066376109559503,0.00730424490163522,0.03695181851720483,-0.1328407671705572,-0.013476317274322174,-0.20951159978132786,-0.1280879444306788,0.13231880218497521
453,290.932,0.009390087805577362,0.018126668720065055,0.007252169695422786,0.027369443213624885,-0.13564705839909338,-0.0014023130720769161,-0.06966849895846607,0.046327354028563104,0.21945427897457703
454,290.939,0.009578704251915912,0.01720489038889169,0.00730164831908821,0.02652097002592224,-0.12771817907882224,0.015539062690759296,0.04494844565055659,0.18467855436058314,0.2741284506112247
455,290.945,0.009752891714302287,0.016479103414543905,0.007444725578368948,0.031541517436475666,-0.11421081237157692,0.03215335706971105,0.1257026741024346,0.2744441398421192,0.29060039423826756
456,290.952,0.010009364950150963,0.015750178890272463,0.0077371403145314,0.041736549948807794,-0.09405333742011505,0.051393710405215454,0.17132703860198673,0.31283883217752223,0.2699624697509834
457,290.959,0.01034430496244048,0.015166199130957386,0.00815559635809159,0.05396059641955745,-0.07279802238407389,0.06816515918332484,0.18481748638116013,0.30642943508502707,0.2186694797962962
458,290.966,0.010764899554015328,0.014725597522796492,0.008676547504183178,0.06620928688745613,-0.053088151376091575,0.08067802541416534,0.1720450352718561,0.2678127084157965,0.14588973638664554
459,290.972,0.011189712778622782,0.01444916828849519,0.009178977249382268,0.07539512131569405,-0.039054926724775216,0.08679855631965175,0.14018644126977936,0.20918418149673906,0.062150416826230986
460,290.979,0.011745877493566217,0.014217785931573919,0.0097915045721891,0.08350908295374523,-0.027054318109826343,0.08820925019646053,0.09621179398153012,0.14045053765346724,-0.0210502048911004
461,290.986,0.012347804740426183,0.014053923369337265,0.010395310518373484,0.08847013043469316,-0.0197635568148984,0.08430673442752612,0.04832707886624983,0.07196396227180886,-0.0926486122798026
462,290.993,0.012973583183919541,0.013925919674204769,0.01095702104141823,0.0903237105632816,-0.01680892750864575,0.07618198644228655,0.005676512824435683,0.014118420783145574,-0.14406388048884408
463,290.999,0.013513742475655687,0.013824015300834424,0.011386350253758847,0.08972938668124066,-0.017159196947973965,0.06692775100390219,-0.02587790276691028,-0.026024268322877787,-0.17049258335083534
464,291.006,0.014133235833399496,0.01369520294136319,0.011813791411279822,0.08726871553258718,-0.019644334329793803,0.05519829400299493,-0.045813133379019905,-0.0463795853839215,-0.1712422016017699
465,291.013,0.014731804340486102,0.013546222865432599,0.012161650969148887,0.08375085792060685,-0.022921401650345046,0.044190151102381656,-0.056678764960454084,-0.04909694826704574,-0.14947727812752196
466,291.02,0.015303901881231994,0.013375225184100295,0.012439625674932831,0.079705582292388,-0.025935078730278407,0.035231193407259616,-0.061179324869725715,-0.038705776849692314,-0.1115397051037006
467,291.026,0.015771345273687593,0.013214414158099848,0.01263537112148869,0.07610888185873405,-0.0276685966029479,0.030017288777714896,-0.06107446664374673,-0.02021743249162936,-0.06568373101770082
468,291.033,0.016289874392930608,0.013018536526835128,0.012835153580008798,0.07204229506773599,-0.028296440901217676,0.02706341365656074,-0.05740451856367177,0.0019253464867440978,-0.020376679043752965
469,291.04,0.016781144049952384,0.012823577402501608,0.01302421732280266,0.0683204640812431,-0.027406166051177096,0.02695479857021871,-0.05103009283312026,0.024012587758748,0.017212205771841908
470,291.047,0.017248099780133565,0.012639792661794602,0.013220034784752853,0.06509545882757048,-0.025103759865072746,0.02899304770122483,-0.04292962556992599,0.04306743843638353,0.04217167094169032
471,291.053,0.017631885101894486,0.012498009526030236,0.01340232869749939,0.06283298176000457,-0.022157285389937977,0.03177158988123953,-0.03397319267335916,0.05708482134477231,0.05227247937222099
472,291.06,0.018064676226594627,0.012357605254672084,0.013636755360479369,0.06082162529709068,-0.01795822071236248,0.035207456684420914,-0.024627172906919747,0.06525387382847377,0.04783063733732766
473,291.067,0.018485645879396172,0.012247885060548212,0.013892688804959948,0.05945541836040778,-0.013390406180150187,0.037916384595692375,-0.015176923196436523,0.06782825578209013,0.03109329726010009
474,291.074,0.018899267498873152,0.012170191401436953,0.014162503376236351,0.05872218720435897,-0.008807782137336496,0.039173492911796184,-0.006185582451648917,0.06568534520180244,0.005532237922743289
475,291.08,0.019251189236992126,0.012128429678561687,0.014395853522010796,0.05858505883585034,-0.005112792154484246,0.038609889013384316,0.0015245150973783397,0.05990936120897031,-0.024689439019771494
476,291.087,0.019662367759798936,0.012106040746147462,0.014656529021253585,0.0588945191088687,-0.0012840456781470057,0.035868825055931156,0.007491532264597908,0.051640206142469926,-0.0551707712151552
477,291.094,0.020076987840701357,0.01210831561402032,0.014891154502501606,0.0595683611488812,0.0019340079275346903,0.03116702672916973,0.012140686397870042,0.042116977741626115,-0.08181494261192182
478,291.101,0.020497446262536266,0.012130841609557689,0.015087319820812994,0.060562616518150134,0.004501990797423349,0.024880207074043936,0.016826694170220403,0.03270055846046485,-0.10134996968509238
479,291.107,0.02086433811849871,0.01216291177143961,0.015217792255386905,0.061734668802080526,0.006188063163166314,0.018610604450385648,0.02301199637564379,0.02460995245933329,-0.11175721178966706
480,291.114,0.0213028619073305,0.01221141119926674,0.015321099440983494,0.063557842293645,0.007668916216116324,0.010905734291715305,0.030105705579603046,0.018534329459014454,-0.11272224591730892
481,291.121,0.021755642732720532,0.012269080950355851,0.015371206654312628,0.06580810781770001,0.00880815552361761,0.0034106123737413516,0.03545521551704056,0.014657121750127771,-0.10564624945408552
482,291.128,0.022225156890444377,0.012333999569659878,0.015371202252345268,0.06833879438901717,0.009740021420376735,-0.003411870078701291,0.03827570238969626,0.012492557199752723,-0.09312506396043474
483,291.134,0.022642153985591766,0.01239447327530527,0.015335593869098947,0.07066023732611486,0.010417880461324025,-0.008457591003349012,0.0406313976253139,0.010548237939057934,-0.07838171713958846
484,291.141,0.023146912478797257,0.01246955734696012,0.015259252841157643,0.07355647501820844,0.011034711440046266,-0.013354131265579577,0.043749760410786036,0.007422977765789605,-0.06427775408590111
485,291.148,0.023672669417315852,0.012548078642928668,0.01515178721875869,0.07665979312985383,0.011399944550951552,-0.017350332276956315,0.04666463365980212,0.003217997225816686,-0.05215055910314865
486,291.155,0.024220644643553762,0.012628153837325174,0.015019079153234005,0.07990455722499373,0.011478682419648395,-0.020566257873234673,0.04787075362955008,-0.0009239891890711771,-0.04154462576199533
487,291.161,0.02470836719039817,0.012696595803762825,0.014889293625945283,0.08266962505570012,0.011335306392793317,-0.02269558455613267,0.04611539626850163,-0.003949439448788305,-0.030832338946912372
488,291.168,0.025297454930445523,0.012774841785351864,0.014724533372158382,0.08564115781485143,0.01102068834691589,-0.02437877366866239,0.04045946464291154,-0.005216878330537875,-0.01820695326889506
489,291.175,0.02590549980122722,0.012850818770792385,0.014551375569418396,0.0880859481226514,0.01068702177893176,-0.0250948842570126,0.03076888719117851,-0.004504413358087159,-0.00265674893754359
490,291.182,0.026527964613152627,0.012924834341211576,0.014377245679346744,0.08976114099876675,0.01046028405510765,-0.02465651290628119,0.018037436684213818,-0.0021015333012554963,0.015428588184558783
491,291.188,0.02706847616185721,0.012987521042294826,0.014233680892552229,0.09040937523694079,0.010435282972740576,-0.02319841602544902,0.003996395398338181,0.0012517330001947779,0.03413291279824443
492,291.195,0.027700676796273062,0.01306127645154577,0.014081444582213314,0.09021937745317425,0.010637691098942479,-0.02029767264278103,-0.009531933127951798,0.004645376940559931,0.05037951740155208
493,291.202,0.028328551431947315,0.01313717662224998,0.013952709247998126,0.08917337559648437,0.011048071959387772,-0.016483851418675137,-0.0209430683597886,0.007310966399200023,0.06073520647322869
494,291.209,0.02894678421443911,0.01321644936247272,0.013852116451038923,0.08746456225818798,0.011601282389950491,-0.012256947712505201,-0.028842779240569237,0.00880668060745433,0.06241457180891118
495,291.215,0.029466191583549593,0.013287632072350997,0.013788862184706742,0.08567122744611995,0.012126287569586981,-0.008827807731654093,-0.03211364019850034,0.00903852917838684,0.054143749359793145
496,291.222,0.030058406207197567,0.013374586250091577,0.0137379704008339,0.08353295073889498,0.012717763213417844,-0.005712701946290732,-0.030184514835465515,0.00819396521005482,0.03661407562518092
497,291.229,0.03063671487075735,0.01346539418004104,0.013703870907218786,0.08169809599235385,0.013227359629267351,-0.004030010515163474,-0.023273517550424987,0.006652998427568433,0.012410716767912569
498,291.236,0.031204319790798428,0.013559369150879214,0.013675403036574163,0.0804747383049807,0.013622632038763382,-0.004103666811865674,-0.012368701537709033,0.0048631639868791585,-0.014556674480343779
499,291.242,0.031686169264480875,0.013641817148487403,0.013645970761516937,0.0801417529217345,0.013860033830501908,-0.0057070915404961,0.0010503484050695725,0.00320625121394176,-0.03994459858853532
500,291.249,0.032249132932196264,0.013739448976213958,0.013594024865392216,0.08070500928254698,0.014034774091350948,-0.009134593066556437,0.015359984257302457,0.0018847624159905704,-0.059914797872259534
501,291.256,0.032819410024970824,0.01383802328674428,0.013514240492535419,0.08223130293996288,0.014129314631807019,-0.013660942035554211,0.029108198263951817,0.0008696524950798794,-0.07195924296537314
502,291.263,0.03340348380691192,0.01393703975648549,0.013400901278394717,0.08464692047165849,0.014161105294232788,-0.018721690576051726,0.04127021206239049,5.656047340129515e-05,-0.07548439522165588
503,291.269,0.03391953213389693,0.014021969809541613,0.013275566975387452,0.08736918852252432,0.014148912391006446,-0.02305641042617032,0.051261150188491054,-0.0004710038435050194,-0.07185507510708011
504,291.276,0.034544321899447596,0.014120901742208569,0.013097877675205545,0.09114217306325305,0.01411735408524641,-0.027711961054338142,0.05866380716846376,-0.0004484394718550054,-0.06378322363231739
505,291.283,0.03519694211310131,0.014219705228703727,0.012889694501865485,0.09532074512338806,0.014112213484778762,-0.03176894561420782,0.06307784074048521,0.00029866936781794385,-0.054416002981890685
506,291.29,0.035879496446765524,0.01431872872331132,0.012655186391921437,0.09969477878053477,0.014180213545941945,-0.03523337151261528,0.06435853172524202,0.001682495342226006,-0.04651917579708602
507,291.296,0.03648889268079189,0.01440425801253045,0.012435980850605525,0.1034372992292074,0.01432954952723566,-0.03783514225969884,0.06285176090578598,0.0033935153680035267,-0.04191641797842298
508,291.303,0.03722761739119875,0.014505575653782994,0.012161141613385433,0.10762690374403021,0.014618347973470532,-0.04069035408884269,0.05921131480070802,0.005020554857948548,-0.04126946184049888
509,291.31,0.037994608265139486,0.014609250180108736,0.011866042085717655,0.11151334595316628,0.015002945262434302,-0.04362379667331916,0.0540192032408628,0.0061845905998638125,-0.044195651394598176
510,291.317,0.0387874165732273,0.014715814883377741,0.011549415511605892,0.11500331350033187,0.01544411281440264,-0.046840938787120055,0.04766012506225187,0.006668715268181198,-0.04953497640238799
511,291.323,0.03948521643993348,0.014809639421784994,0.011259091000359453,0.11759664206948946,0.0158307333214952,-0.04993389829548092,0.04048851452312388,0.006472724710281635,-0.05559638882343321
512,291.33,0.040317212447591476,0.014921925899788857,0.010895614977357379,0.12011650297548203,0.016251117536728588,-0.05391639399075191,0.03292700034224873,0.005775063859809246,-0.06043262342170199
513,291.337,0.04116502593552076,0.01503696321826199,0.010503463880142408,0.12211592214699749,0.01661668774128622,-0.058126776642016646,0.025325575250086947,0.004875732270728212,-0.062235818073514505
514,291.344,0.04202502779548361,0.015154363016642048,0.01008192018083712,0.12359889498507047,0.016926111795848905,-0.0623142803022652,0.017880466075279922,0.004139259875634913,-0.059766049762394635
515,291.35,0.04276915774821376,0.015256627937637308,0.00969811466055652,0.12444442259046058,0.017162195202408397,-0.06562089312399066,0.010859474182472703,0.003885342700452591,-0.052627507048873826
516,291.357,0.04364216275405338,0.015377738392921246,0.009227485441620269,0.12498557907782522,0.01744079202154925,-0.06884459800055653,0.004906984215341921,0.0042315056813131535,-0.04129432519363682
517,291.364,0.044517770513897076,0.015500932359076371,0.008737377042887792,0.12518806659365528,0.017757484023033,-0.07118637306690273,0.0009924387223459725,0.004995236273995469,-0.02693270344403067
518,291.371,0.04539418409255928,0.01562652539298137,0.00823449881332364,0.12521581302393767,0.018126239949797215,-0.07249312109418084,-0.0001840534420261602,0.005748375073230385,-0.011139072261439679
519,291.377,0.046145558071550054,0.01573631940117302,0.007798940194649028,0.12524217997179282,0.018471762780578597,-0.07269308512999634,0.0010802802491770153,0.005996132676773643,0.004342186617020091
520,291.384,0.047022788171874906,0.015866987259350995,0.0072927640056473925,0.1253949915494138,0.018861910984530446,-0.07192868315608188,0.0033718467002727937,0.005370737295615907,0.01792847298390408
521,291.391,0.047901529787615776,0.016000115914045914,0.006794841169377932,0.1256740415192261,0.019174847499704942,-0.0703349843493766,0.0047582041125386635,0.0037465895088417893,0.02850354163894714
522,291.398,0.04878223568493256,0.016134941017415014,0.006310202859869035,0.12595621485681874,0.019346610605724065,-0.06813310408163789,0.003462845236407652,0.0012576854625588444,0.03564768716241664
523,291.404,0.049538123950979805,0.016250975034667596,0.005908060111595837,0.12600654049344664,0.019331395145318456,-0.06591447867672465,-0.0017522496498025557,-0.0017748671846786845,0.039764589368429346
524,291.411,0.05041859762240068,0.016385482653129974,0.005456487680980163,0.12555736562662442,0.019099352986762196,-0.06310621578480431,-0.011334347326211506,-0.004985622848865478,0.042053444951382045
525,291.418,0.05129315843051825,0.016517606885005788,0.005025106544764427,0.12431715097821668,0.01865042754915795,-0.06014553741960377,-0.024798995089594253,-0.008093707069504148,0.04420517591735577
526,291.425,0.052155482328724266,0.01664587313468316,0.004615142205336701,0.12206110565189782,0.01799707235863648,-0.056987130988234186,-0.04093031909494223,-0.010941632376425805,0.04781420251804477
527,291.431,0.05287909715672609,0.016751700887453348,0.004282184972237397,0.11914383701651138,0.0172788452315927,-0.05399861337872193,-0.05822921840937545,-0.013471295825258958,0.053767126122088754
528,291.438,0.053697072513776485,0.01686914858123983,0.003918093689932957,0.11456340785486342,0.016277638707378517,-0.050027467279615156,-0.07522043526279562,-0.01569860489701971,0.061931218488206645
529,291.445,0.05447910022806757,0.016979081463868204,0.0035838955334815637,0.10887308194242994,0.01513175632927704,-0.045457720277857605,-0.09056578159528166,-0.017686390506264468,0.07120721313739696
530,291.452,0.05521793611287197,0.017080536541179987,0.003283834296610222,0.10222288514439216,0.013855408616925786,-0.0402740616853217,-0.10318603253180902,-0.019499679656047864,0.0798173785582439
531,291.458,0.05581224971401263,0.017160079092629437,0.0030568033502423697,0.09588164856821392,0.012658775199431043,-0.03540292043693431,-0.11235602570241526,-0.02117453690411042,0.08575534499717104
532,291.465,0.05645578209263049,0.01724341790653491,0.002829777094467087,0.08798474532396493,0.011152314488023092,-0.029461724070769774,-0.11771826774153703,-0.022715817714413222,0.08733991954878324
533,291.472,0.057043194603526706,0.017315861649648375,0.0026440939104753615,0.07984740064626218,0.009545897830095452,-0.023590614212542424,-0.11936122649952625,-0.02408672831088571,0.08371339218277947
534,291.479,0.05757362561425792,0.017376764891762174,0.002498038936373726,0.07170431670540427,0.007855028488120645,-0.01813937838789504,-0.11788547973267618,-0.025176325461622878,0.07510699499307973
535,291.485,0.05798336715316574,0.017419395212621806,0.0024013719873052937,0.06487619626321717,0.0063550784650224885,-0.014082937968095163,-0.11420602423502237,-0.025807786445127268,0.06277360710789281
536,291.492,0.05841065669759212,0.017457674859363868,0.002316171510087701,0.05720653071566148,0.004581963461273222,-0.010260055522628195,-0.10924775596369721,-0.025851474034765717,0.048605113176352695
537,291.499,0.05878549958583926,0.017483595788730422,0.0022543457633150315,0.04989143735487181,0.0028240163577367312,-0.007404443555264709,-0.10387565259170571,-0.02536587348044765,0.03459242456914057
538,291.506,0.059110371242473855,0.017497361518635308,0.0022093545815794592,0.042929035969987324,0.0011090493294022414,-0.005450179797851149,-0.09897216379341624,-0.024599260334644032,0.022344559370417457
539,291.512,0.059350795208344666,0.017499740764441933,0.0021797552684645954,0.037212285986567464,-0.0003159673938647502,-0.004416257907056388,-0.09534325766014037,-0.02383782821445912,0.012799004462621846
540,291.519,0.05958860368762095,0.017491868278886696,0.0021511127116970647,0.030732993806608287,-0.0019333141933443882,-0.0037673297408036327,-0.09342929332616702,-0.023283164740860045,0.00610735474267811
541,291.526,0.05978132919034643,0.017472768445273165,0.0021256698876391316,0.024331435543488586,-0.003523781124803678,-0.0035020485614577833,-0.09307849950872793,-0.02305469000808664,0.001621545816655455
542,291.533,0.05992922437915685,0.01744254713990705,0.002101109303765087,0.017924332688029097,-0.005110877551223131,-0.0035152611168355673,-0.09359083363197354,-0.023184965922715975,-0.002006490300472177
543,291.539,0.06002020944214825,0.017407757219170098,0.0020792649463990233,0.01240402164257922,-0.006485762694481782,-0.0037661913385532934,-0.09404752215978739,-0.02354812312961457,-0.006522763546624959
544,291.546,0.06008448168905805,0.017356663033378267,0.0020504870934663906,0.005959477474494266,-0.008112576103174108,-0.004456052356478718,-0.09371265422432364,-0.023848677108450254,-0.013576164015646779
545,291.553,0.06010386673024187,0.01729416214513129,0.0020147591170279616,-0.0004208942791193455,-0.009744820538806228,-0.005751940911636601,-0.09217787497514969,-0.023706354736003805,-0.02417922369595581
546,291.56,0.06007912734093061,0.01722036474205917,0.001966992234778325,-0.006647502666949105,-0.01134015176749882,-0.007895739731106915,-0.08923279716570255,-0.022773220091615382,-0.03827981669190877
547,291.566,0.060023883306237764,0.017148471209994135,0.0019114197250786405,-0.01176717556408595,-0.012624358920958976,-0.010628430168874978,-0.08478765144691926,-0.020877675082108273,-0.0546058081232559
548,291.573,0.05992184056900358,0.017055411421672006,0.0018219396251941912,-0.01738789221709005,-0.013964152028201407,-0.014937312655235126,-0.07897051711362996,-0.01815686073189761,-0.07093240133831409
549,291.58,0.059781962958057294,0.01695367120234824,0.0016986799549395758,-0.022577139481819514,-0.015104482064283121,-0.02027973598891554,-0.0722168991432907,-0.015066368580599508,-0.08471776123144636
550,291.587,0.05960741691571196,0.016844661382451206,0.0015352746141350144,-0.027293158331097002,-0.016041180763417887,-0.026407504240925785,-0.06518312603711869,-0.012224112853182539,-0.09381322836689075
551,291.593,0.059432748122454304,0.01674643744167691,0.0013599929042684743,-0.03092977275451131,-0.0167001328278583,-0.03201973238097529,-0.058427363559122675,-0.010174023936216064,-0.09694943914351321
552,291.6,0.05920296634843031,0.016627206775755608,0.0011129253271942403,-0.034722162680869216,-0.017365771721060397,-0.03857100392589828,-0.052062964836265026,-0.009219198103394789,-0.0939202125700343
553,291.607,0.05894816101637705,0.016503410585552818,0.000821371055458044,-0.0380793607628674,-0.018004568336854467,-0.04473021657009831,-0.045748158432006594,-0.00939198092289605,-0.08552690150039247
554,291.614,0.05867142367728761,0.016374990187191806,0.0004891752769929771,-0.04098845040612996,-0.018686974052277643,-0.05018286299205229,-0.03900743797550697,-0.010489738272845946,-0.07333458307514291
555,291.62,0.05841926556621592,0.016260871998225256,0.00017637046969322335,-0.04306425328403254,-0.019352422269724796,-0.05408540610736775,-0.031550223675606115,-0.012129206267983554,-0.059314966475309226
556,291.627,0.05811121279923215,0.01612228584031951,-0.00021481360991128793,-0.04495082299698227,-0.020243622846175122,-0.057681473779555605,-0.023414511273153457,-0.013835698784045737,-0.04545556233306609
557,291.634,0.057791944177849566,0.015977099023831088,-0.0006280541465950849,-0.04626878311226219,-0.021238324721915766,-0.06038725098715914,-0.014983925801367638,-0.015144690637998975,-0.033376577304005346
558,291.641,0.05746542376335665,0.015824725770759333,-0.0010576594751563356,-0.047022763885648036,-0.022296890441411782,-0.06235712860168192,-0.006983114738479025,-0.015696355838342835,-0.02401531244198685
559,291.647,0.05718262818848441,0.015688205983258246,-0.001435461223417516,-0.047242427738875645,-0.02320970539249715,-0.06357678748596997,-0.00048337834626925873,-0.015330717664149769,-0.01744155217857777
560,291.654,0.05685226559111779,0.015522193920647591,-0.0018841375913197197,-0.04714688579437565,-0.02422231249622753,-0.06461646048599665,0.003266968912726745,-0.014171336080128898,-0.012849059659189243
561,291.661,0.056523025546623265,0.015349416377795029,-0.0023390522446881815,-0.046921698346851524,-0.025142699747326292,-0.06535915476204239,0.0032938108358246906,-0.01264391541024032,-0.00878915161421658
562,291.668,0.056194881091903966,0.015170533013747002,-0.002798060423600307,-0.04683386014431029,-0.025966832837787644,-0.06578603921275687,-0.0007346668572512622,-0.011366995275315242,-0.003648019684681051
563,291.674,0.05591305594909049,0.015012762790006495,-0.003192761928485321,-0.04710785412729001,-0.02662324174262829,-0.06578112908286607,-0.008578536699553042,-0.010944698145092722,0.0038149176532646816
564,291.681,0.055579903782897996,0.014823671995066503,-0.0036510748408422593,-0.04807847907049702,-0.027402699668759266,-0.06516541730473706,-0.0197003773378259,-0.011764612843745517,0.014123690423283285
565,291.688,0.05523698221580176,0.014628771565337644,-0.004102287364002842,-0.04989911152835629,-0.028283137396589678,-0.06375244645533727,-0.03334329223793486,-0.01388671931583955,0.027042860536634447
566,291.695,0.05487785922496927,0.014427070643866868,-0.004540290258762586,-0.0527074572808525,-0.029345697309305127,-0.06139123776164279,-0.048477156203951884,-0.01707069697717708,0.04175036195430783
567,291.701,0.05455169652089709,0.014247646483326841,-0.004899913922523086,-0.05601344407602189,-0.030462356203751446,-0.05848331682461836,-0.06389512162635055,-0.020885142323739003,0.057091442229946325
568,291.708,0.054142507685368914,0.014028920835038722,-0.005293808272610232,-0.06089765178908889,-0.032030686164237744,-0.05405792605734293,-0.07840504387544107,-0.024807757333568665,0.07184120674577832
569,291.715,0.05369588289939935,0.013798321469453707,-0.0056533790880289245,-0.06670942991744726,-0.03385484686054034,-0.048676592634472896,-0.09091965280345735,-0.02833870658387821,0.08494259150511378
570,291.722,0.053205917419905796,0.013554193054894801,-0.005972418986916818,-0.07328070708060982,-0.035896128727668536,-0.04247766419057455,-0.10053285757493387,-0.031133528135178726,0.09566163241856238
571,291.728,0.05274794242606968,0.013333150772633433,-0.006209696875942674,-0.07937762419736806,-0.037784632025768886,-0.03661496548433303,-0.10670465019544374,-0.03305771957568862,0.10361466499912618
572,291.735,0.05216633636092548,0.01306058821200058,-0.006440496602206743,-0.08679553727228488,-0.040090385297847766,-0.029327813448210907,-0.10941438491736295,-0.03411982312899899,0.10869468007697503
573,291.742,0.05153251618921669,0.01277172889952231,-0.006619402812761614,-0.09429594035866697,-0.042440846838741955,-0.02178824671028704,-0.10910797596972388,-0.034360283763263264,0.11096870396544165
574,291.749,0.05084654840520579,0.0124664546951211,-0.006745302809291784,-0.10169485507287981,-0.0447803544186846,-0.014183180869735622,-0.1064575466736592,-0.03380068222675295,0.11060297998796856
575,291.755,0.0502179731462232,0.012191922638678947,-0.0068111237915474965,-0.1078302312556342,-0.046730331062462764,-0.007757146548938426,-0.10208720553643022,-0.032480077726521124,0.10782139941537482
576,291.762,0.04943931418032259,0.011857243273716893,-0.006840111626122114,-0.11464375900152353,-0.04889234464091305,-0.0005250919009461502,-0.09642321475080798,-0.0305096450912676,0.10288269709019195
577,291.769,0.0486144449997122,0.011507958862565618,-0.006819885109800075,-0.12103314974413337,-0.05090320140223685,0.006304096564381617,-0.08973008042878293,-0.02807616180863812,0.09608399432613961
578,291.776,0.047746552945979764,0.011145212068817856,-0.006753668720905495,-0.12693600846495653,-0.0527387396684785,0.01261487169119909,-0.08224822644370972,-0.025401784752123895,0.08777885462440382
579,291.782,0.046971122164238,0.010824534478480993,-0.006663316097246683,-0.1315409187835127,-0.054153790444311144,0.017502669528546642,-0.07427516392839541,-0.022696555858220155,0.07836003539310206
580,291.789,0.04603346768317002,0.010440315440601441,-0.006523192801037509,-0.13636036152143358,-0.055623077521196586,0.022532557959760217,-0.06613809028226597,-0.020110754250864414,0.06818450125761039
581,291.796,0.04506401451274354,0.01004641176041539,-0.006350368642581672,-0.14062625860022054,-0.05692083110330912,0.02684577302758639,-0.058147750121481205,-0.017698970552832465,0.057479936877243974
582,291.803,0.04406656583965688,0.00964398701577314,-0.006149980778857886,-0.14435907656719393,-0.05805766736582335,0.03040790232202576,-0.0506069641932436,-0.015422468543915076,0.04630180581592335
583,291.809,0.04319207598503235,0.009293115581219803,-0.005960393708481631,-0.1471375416395908,-0.05889947748473045,0.03278778780309111,-0.04383456519017204,-0.01319111233922988,0.034591787852794216
584,291.816,0.042152266621121766,0.008877923848095052,-0.005724039969111274,-0.14995084805134773,-0.059726731980362435,0.0347418520175109,-0.038130410814529225,-0.010910739702514749,0.022339382451736927
585,291.823,0.041093977418174756,0.0084575040454836,-0.005476987711527792,-0.15241749564758217,-0.06039321162282366,0.035844507292004835,-0.033734747630656245,-0.008506977355684045,0.009786202140442717
586,291.83,0.04001930162047132,0.008033013336438622,-0.0052251955633005505,-0.15463273226746582,-0.060889848104226436,0.036096106487155784,-0.03080561513723442,-0.005962401845526121,-0.0024559227556588833
587,291.836,0.039086202531492927,0.00766684987913542,-0.005010027194219244,-0.15640029739051345,-0.061164637662924855,0.03562668320627042,-0.029274878644678603,-0.0033778437598236183,-0.013500028253201535
588,291.843,0.0379844352661303,0.007238175578786973,-0.004764961598941391,-0.15839034985572523,-0.06131373386511543,0.03439205830163768,-0.028704800311083925,-0.0009660366592352428,-0.02247045838106786
589,291.85,0.03686883672001495,0.006808989402812335,-0.0045303762545931825,-0.16035209189128893,-0.06131088784183614,0.03263232579780253,-0.028450061384435874,0.0010489548329612986,-0.028798906323608434
590,291.857,0.03573958980808643,0.006380243848560653,-0.004309296949035763,-0.16228988294520083,-0.06118784194427124,0.030533190075700736,-0.028006994473739787,0.0025359565009604266,-0.03235888593544296
591,291.863,0.0347609803479012,0.006013648329991653,-0.00413190177920629,-0.16391327045141088,-0.061010664245969806,0.028598533201068005,-0.027172824194125887,0.003486409216937246,-0.033401146785272846
592,291.87,0.03360720653554371,0.005587469638408379,-0.003939614558345411,-0.16573639022192307,-0.060754676206307014,0.026340672759143875,-0.025943312611318273,0.003971738050845648,-0.03238105033672429
593,291.877,0.03244100503840352,0.005163156112553303,-0.003762699729377201,-0.1674640375321792,-0.0604777597521997,0.02420642123173708,-0.024391258033671235,0.00409615331753688,-0.02979983209379176
594,291.884,0.031263108041150116,0.004740780872374487,-0.003599969523061415,-0.1690779616828373,-0.06020088029880443,0.022287923429882773,-0.022630016907515687,0.00397066004438935,-0.026095119709406946
595,291.89,0.030244812798726886,0.004380250580602362,-0.003470449100534434,-0.1703537857931672,-0.05997588362580185,0.020885550745980423,-0.020735934099739232,0.0036770984665408625,-0.0215722857045703
596,291.897,0.029047602766646464,0.003961250546173637,-0.003328813483835994,-0.17170622337242356,-0.05973841192517691,0.01958176831068779,-0.018666995231899238,0.0032415799120453274,-0.016413088222938098
597,291.904,0.027841454501452808,0.0035437898997670455,-0.0031950044525839664,-0.17290756668266066,-0.05953605847662122,0.01864938347557854,-0.016333840505256988,0.002653937009214312,-0.01075170986548982
598,291.911,0.026627485809386644,0.0031275857835254637,-0.003066318672947077,-0.17394063105028104,-0.05937940330660294,0.018117982134934974,-0.013764230486500929,0.0019101720397666604,-0.004730534781712
599,291.917,0.025581638577198956,0.0027715694871133707,-0.0029578963155975926,-0.17467511301392033,-0.05929269549798565,0.018022803648396316,-0.011201208395710854,0.0010370732348752086,0.0014953665866910683
600,291.924,0.024356481140079933,0.002356655496540779,-0.0028306240451403592,-0.17536986901983542,-0.05925415895124149,0.018340702196501562,-0.009040333412714692,8.567937961550544e-05,0.00776652780144697
601,291.931,0.023126894231386374,0.0019417802488749729,-0.0026996358333203777,-0.17594067632093063,-0.059281626096047,0.019084501180609247,-0.007589993999071913,-0.0008859277476832953,0.013903868863998109
602,291.938,0.0218935779076811,0.0015264852209440603,-0.0025620129422879463,-0.1764354161660381,-0.059374096169843224,0.020236324828628808,-0.006824127179840078,-0.0018081646370369708,0.01965422394674736
603,291.944,0.020833801346864814,0.0011698535653815942,-0.0024366854237672254,-0.17682343743770396,-0.05950312235041121,0.021539514678078617,-0.006364925543362389,-0.0025775049704019975,0.02464190332211567
604,291.951,0.01959458933342148,0.0007526550837178838,-0.002279535928524673,-0.1772371378315664,-0.05969644383913512,0.023360341105475736,-0.005688131569110823,-0.0030548680687023573,0.02840741750743275
605,291.958,0.018352723332931132,0.0003340398670964038,-0.002108933031381673,-0.1775817194511367,-0.059907903766916556,0.025383343792489393,-0.004351167407169226,-0.0031059638385468125,0.030532257888117715
606,291.965,0.017108872644907604,-8.600856962650855e-05,-0.0019238852618424806,-0.17780419141536064,-0.06010593529766149,0.02748744750481431,-0.0021304974172265405,-0.0026636350923943453,0.030770275519329544
607,291.971,0.01604194101200096,-0.0004470358050605011,-0.0017536742988518306,-0.17783968621848928,-0.06023647651309473,0.029249540158464798,0.0009240098763406601,-0.0017735313688884374,0.02912420607027464
608,291.978,0.014797713596233391,-0.0008689746366595429,-0.0015423232707672987,-0.17765386114341897,-0.06031747537225963,0.03113646786564401,0.004489957032999101,-0.0005863500574858738,0.025850958950483484
