,Time,Position X,Position Y,Position Z,Velocity X,Velocity Y,Velocity Z,Filtered Acc X,Filtered Acc Y,Filtered Axx Z
0,312.869,0.0,0.0,0.0,0.0,0.0,0.0,0.0006634967187413138,0.0012370562228368382,0.00010492027000733392
1,312.876,4.994929041450542e-07,1.5065492864199263e-06,3.034581241570022e-07,0.00014271225832821526,0.0004304426532660239,8.670232118835701e-05,0.0034943890986602073,0.011303782414187506,0.0024211300905424425
2,312.883,2.705132325927782e-06,1.1993890561642038e-05,2.9850838512946823e-06,0.0004874704336092566,0.002565940568223867,0.0006794764579932899,0.006550053783925879,0.05091341320471301,0.014849195564701977
3,312.89,6.648047193100691e-06,5.439380936755931e-05,1.5436504745045594e-05,0.0006390766712964838,0.00954832194774384,0.0028780723687901427,-0.00213304411083615,0.15251651530633334,0.04920634432172441
4,312.896,6.441330719082012e-06,0.00015556976079818895,4.671865168312959e-05,-0.0007079821626357146,0.02417699519563834,0.0075493099438547345,-0.0436542136488054,0.34471999419910937,0.10957154534301965
5,312.903,-1.9844610755224707e-05,0.00044199190767211496,0.0001345572177046519,-0.006802286830017981,0.057657903911139174,0.017547423205133708,-0.13390182281268936,0.6307378755839144,0.18172097442008078
6,312.91,-0.00011537424441375159,0.001038824574649968,0.0003075904528910683,-0.020491894215255907,0.11286571522526845,0.03189064399094993,-0.26494145147358267,0.9777278467019053,0.23616516219730116
7,312.917,-0.0003389582302939813,0.002105490942592059,0.0005884591084106263,-0.04338924460813996,0.19189610418901445,0.04835754330094669,-0.40216710367022657,1.3248026945803963,0.24359381505993064
8,312.923,-0.000678982268762452,0.003515151212644301,0.0009168092950195888,-0.06995210154747575,0.2779906524928225,0.06109251890151818,-0.5007187591272614,1.6015975305524455,0.18927488799737188
9,312.93,-0.0012919393296795287,0.005863380749832546,0.001376401956741774,-0.10517848728584961,0.3929320724176253,0.07021967016186953,-0.5255931455015563,1.7471918820173233,0.07664237253050094
10,312.937,-0.002147125630581138,0.009031118367721575,0.001867918049696984,-0.13916045582872122,0.5121358184071646,0.07021349925380439,-0.46446297655693985,1.725779330358365,-0.07682216038772408
11,312.944,-0.0032165735127968114,0.013007964704894844,0.002320638032009776,-0.1663960819469672,0.6241059922129574,0.0591350671211867,-0.3290401526819373,1.5364435724885448,-0.24594517846935696
12,312.95,-0.004256857291075235,0.016995296540501678,0.002618039376535823,-0.18036517748080358,0.7050046196622328,0.039998714387961404,-0.14577695386997783,1.213344494780626,-0.4045097928448437
13,312.957,-0.005530252862013224,0.022174070154469015,0.002785716717122476,-0.18346212850121907,0.7746449843273778,0.00790909720819103,0.055548063403864964,0.8156100459820265,-0.5304131473392573
14,312.964,-0.006777991711136253,0.027743939552649168,0.002704269475522321,-0.1730346855336774,0.8167462722943862,-0.031179737665361494,0.2482528695646298,0.41100040908026947,-0.6084302431450305
15,312.971,-0.007910065736477786,0.03351769218795456,0.002337090237412016,-0.15041503599224393,0.83289733779169,-0.07372861608036504,0.4107649409857124,0.05955682933279578,-0.6312206472485329
16,312.977,-0.008729754226037246,0.03850286619094151,0.0017861239728138379,-0.12281446052885975,0.8288273298784342,-0.10992680545322392,0.5273935352698178,-0.19789859786995728,-0.5991753722222334
17,312.984,-0.009455303924722734,0.04423952736591297,0.0008822584886613185,-0.0844854533811316,0.8102187201122386,-0.14832047573302565,0.5893124651832498,-0.3442585758316277,-0.5194145723496141
18,312.991,-0.009904310552170371,0.049823581726786456,-0.0002669385074937895,-0.04380215446095885,0.7852253829933328,-0.18002152316819914,0.5959852349966918,-0.3839160263556041,-0.4041874858791197
19,312.998,-0.010072520562987868,0.05523364380529805,-0.0016079110232605936,-0.0042578486297199306,0.7605066394374471,-0.2031134813363283,0.5561281874902553,-0.33625836131188963,-0.2685909179332398
20,313.004,-0.010005970880778795,0.059746826409142015,-0.0028616170324274096,0.026441076032638306,0.7438875618366902,-0.2147885217172816,0.48734485247791776,-0.22863306782641696,-0.12825001418586832
21,313.011,-0.009712537474811048,0.06491567741814307,-0.004380348049710169,0.057397039958086725,0.7329270121625544,-0.21913462607748238,0.4145493847539984,-0.09069979519810387,0.0016273547747934912
22,313.018,-0.00921708977580959,0.0700413577352993,-0.005901262916518136,0.08415944547194965,0.731553078464358,-0.21541247872801195,0.36516658098823124,0.0506705818375915,0.10681647377880468
23,313.025,-0.008540933532214596,0.07518937998693902,-0.007375092348835763,0.10902805269791079,0.7393104220030782,-0.2056816447910092,0.35937404708246906,0.17533767462146221,0.17668892997406566
24,313.031,-0.007819741705674683,0.0796645478415754,-0.008575238828784358,0.13136922281424554,0.7524121962019268,-0.19436718185661245,0.400014399064723,0.269998711021139,0.20789577986883784
25,313.038,-0.006795725627084222,0.08500283957625354,-0.009886106486268077,0.16120679963996296,0.7728140137050239,-0.18016643456703957,0.4692959107963287,0.3244031198962941,0.20583942720457643
26,313.045,-0.005546694738249262,0.09049085241171996,-0.011100605905945905,0.1956591685983423,0.7951896535699747,-0.16683339962637783,0.5344652092702944,0.3275055299902572,0.18261519842926002
27,313.052,-0.004045696262415792,0.09612864717728295,-0.012228155453662747,0.23319753878234248,0.815608850875443,-0.15532361400677547,0.5592057817401316,0.2674026571059236,0.15271951597646466
28,313.058,-0.002551657673040739,0.10105785839746252,-0.013135246847594415,0.2648153243450152,0.8274615558588,-0.14704018397186766,0.5154998368221477,0.1354771908684167,0.1288387475469856
29,313.065,-0.0005889659118747527,0.1068582003964998,-0.01413473134636662,0.2959537502734374,0.8297790152935262,-0.13852681567712993,0.39171038505790157,-0.06795859205392282,0.11919610037273172
30,313.072,0.0015532030182231552,0.11261883815477887,-0.015074902687395697,0.31609451546838463,0.8161174870707452,-0.13009356747384268,0.19508575240080084,-0.3300666028836575,0.12650446879734942
31,313.079,0.0037831708570345303,0.11821680653791607,-0.015952562636911888,0.32103915276298156,0.7833020509673101,-0.12066641810203298,-0.05102498621245197,-0.6260028894189165,0.14815316139099843
32,313.085,0.005677220744437068,0.12277990446200579,-0.01664782903110389,0.31031080970749764,0.7377305904030789,-0.11108904662972319,-0.3136371921914664,-0.9229956834693908,0.17738687087808402
33,313.092,0.00774462517639426,0.12769082407954807,-0.01737933581012732,0.28037617085127786,0.6653893003222858,-0.09791289023396477,-0.5585009955600928,-1.18464964118979,0.20649713773557576
34,313.099,0.009549887627749234,0.13204116434264823,-0.018012274388973758,0.23541310096406065,0.5775650605625838,-0.08292670372203127,-0.7514867572748296,-1.3740875352492072,0.230121643890676
35,313.106,0.011006376061647533,0.13574416886524915,-0.01853644586417236,0.18072645157801298,0.4804362316083498,-0.06683657490603395,-0.8417950430780966,-1.4557365113828407,0.23866021961115524
36,313.112,0.011949627223419957,0.1383754782971007,-0.018898065654644677,0.13369060234462735,0.3966669123379807,-0.05370335525082967,-0.7569788920632291,-1.3916279222742232,0.20774501408712
37,313.119,0.01273976679597618,0.14084720397603695,-0.019235610975810485,0.09206356124270387,0.30954042450044106,-0.042738165082189486,-0.45581449964818926,-1.1467804270886313,0.11172304857975408
38,313.126,0.013329976598225757,0.14278936748208934,-0.019526946890469087,0.07656781082985264,0.2453634343757779,-0.04050066767802814,0.0043497016950221875,-0.7230000680750284,-0.04653412345014678
39,313.133,0.013923926510081326,0.1443973746380329,-0.019843954586768266,0.09313216398590268,0.21406718160776647,-0.050072959835958615,0.47824856889652834,-0.1888083991527947,-0.23235220537260215
40,313.139,0.014597094378093808,0.1456949779984968,-0.020200608433017544,0.13125712535051967,0.21846727187813314,-0.06881165557989988,0.81763947185252,0.3383698453940578,-0.4045861899629368
41,313.146,0.0157275557223465,0.147354306984954,-0.020795163629347385,0.1917318301500181,0.25562672425216104,-0.10106125765707633,0.9442758698348692,0.7442614703530942,-0.5349978700416347
42,313.153,0.01728679913686927,0.14934855483167805,-0.02164016602443259,0.25376628828474085,0.31415837481144654,-0.1403679980813811,0.8630824936860483,0.9610434738646025,-0.6101941439569325
43,313.16,0.019243050214696727,0.1517807599176516,-0.02277141088176739,0.30516259109413224,0.3807573640376467,-0.18284481829975993,0.6343358852231518,0.9793013570454019,-0.6273573489687423
44,313.166,0.021159767700180247,0.15422542417472002,-0.023975909656447865,0.3337432374033763,0.434130721655652,-0.21865477326228458,0.33713572874554565,0.8348879131014229,-0.5898423730801707
45,313.173,0.023541355831573837,0.1574352212544269,-0.02563781714581098,0.3467105144228783,0.4829541582599501,-0.2561759379839805,0.04066263168167832,0.5875706548604981,-0.5033273411055847
46,313.18,0.025947915317721854,0.16092277709459116,-0.027536533925651144,0.34087791019034935,0.513490367500549,-0.28631457054139275,-0.2105940916756558,0.3020941350110133,-0.37475415191600964
47,313.187,0.028261025723174283,0.16455769124156422,-0.029611511171628215,0.32001077708130066,0.5250565316338661,-0.3065360711659177,-0.397364592600066,0.03488315323752638,-0.21439419201418083
48,313.193,0.030100309592274867,0.16769576337315512,-0.031472978033420584,0.2930838459551085,0.5209675122346841,-0.3139528827677878,-0.5178963485748407,-0.17387113245575309,-0.03770724262133007
49,313.2,0.03202006159450054,0.17128511504416166,-0.03365888078150067,0.2554167261089779,0.504561536623599,-0.3105907595403631,-0.5795257315181473,-0.3041128481251583,0.13566185876510872
50,313.207,0.033667198911619775,0.17473766816292413,-0.03578246111683634,0.21519393592475186,0.481882211593548,-0.29614647912653674,-0.5923551622542947,-0.3566435928040606,0.28516862474254
51,313.214,0.03503457457882129,0.17802591897483305,-0.037773978562250995,0.1754848261325436,0.4576180203797604,-0.2728585052772431,-0.5645597822601754,-0.3502875264953137,0.3933206467292819
52,313.22,0.03599353254343534,0.18071291181101048,-0.039336761891463116,0.14416782873728046,0.43804625834177685,-0.248069271124309,-0.4999218839259882,-0.31496724239076923,0.44927881903513056
53,313.227,0.03689475209757145,0.18370746768374088,-0.04096509187363598,0.11332347244637085,0.4175411338732408,-0.2171678666428115,-0.3987206929009036,-0.28244441103355866,0.45102584250215955
54,313.234,0.0376087570059351,0.1865628653470098,-0.04238239297408642,0.09067792994309806,0.3982867699173004,-0.1877753049141686,-0.26105150259199783,-0.27852664886462075,0.40531906423013553
55,313.241,0.03820129961347357,0.18927906971707853,-0.043608990466102025,0.07861995792491498,0.37777162153034943,-0.16268112137575436,-0.09025448490990746,-0.3191770489012915,0.3257936730711944
56,313.247,0.038674348703186055,0.19148134923273827,-0.044536023634982484,0.07906307197849417,0.3563215503527224,-0.14632993491625615,0.10531617106427127,-0.4099224627404556,0.22999199139866816
57,313.254,0.03927800809397525,0.19386067714333613,-0.04551638381651212,0.09341103967543751,0.32348642410332323,-0.1337729740920119,0.3127082656170503,-0.5467206970214176,0.13585190969280053
58,313.261,0.04003144634070723,0.19597318004703346,-0.04642946811299784,0.12185703081926094,0.2800858340954856,-0.1271082534751503,0.5160585447704523,-0.7177445968005326,0.05832305224940389
59,313.268,0.04103032906499076,0.19773868648710155,-0.04731139919293378,0.16353803326386113,0.22434457735628044,-0.12487205507983987,0.6983069971222975,-0.9062629240324296,0.006828026583458391
60,313.274,0.04214758095639138,0.19890823665690624,-0.04806142874546748,0.20887926386790015,0.16550547924341705,-0.12513779576353487,0.8428659349806641,-1.093709819380882,-0.015860696037136465
61,313.281,0.04382340711118875,0.19978380446801397,-0.048940851746518986,0.26992820893100516,0.08465675250147095,-0.12612591882242843,0.9357797526194092,-1.26179753654271,-0.012928021207731727
62,313.288,0.04594163757572334,0.20005751272316044,-0.04982419612729976,0.3352804952213024,-0.00645439388824641,-0.1262581899718996,0.9682427012475516,-1.3927028393582566,0.009074334475591719
63,313.295,0.048517452491208785,0.1996689037885747,-0.05070144579917214,0.4006666234882996,-0.10457673027903513,-0.12438457342003086,0.9367657301142726,-1.4660667970100272,0.045513013377065696
64,313.301,0.051078039992634196,0.19878362646242723,-0.05143482967328642,0.4528625436575147,-0.19051571177150606,-0.12007671795254399,0.8374018048224068,-1.4550456281597897,0.1009133220690216
65,313.308,0.05442778621845167,0.19711562500920762,-0.052240563657424605,0.5042078065753657,-0.2860561320051793,-0.11013299180105819,0.6585295396607265,-1.3285005291811107,0.18879464290456233
66,313.315,0.05808243015052202,0.19482614614970148,-0.052951066345564166,0.5399761740154172,-0.36808068499610863,-0.09286777623867054,0.38357286577774075,-1.0612642293062629,0.314223077938665
67,313.322,0.0619093084184466,0.19204427374336708,-0.05350910737370863,0.5534176168193957,-0.42674000252743743,-0.06657251751677583,0.008040195737190723,-0.6477602600901272,0.45188268329408215
68,313.328,0.06519168543854079,0.1894163129191714,-0.053820269921389025,0.5407080565504728,-0.4492469388752375,-0.03714833171051106,-0.44004501794058004,-0.11726266985726547,0.5482612940547247
69,313.335,0.06881606685601256,0.18631247264586917,-0.05394805153016364,0.49482949129786474,-0.4375645677819105,0.0006393006320749295,-0.8966154625227583,0.4576256187110279,0.5526718873668905
70,313.342,0.07201819605980418,0.18342165752747855,-0.05382327320036986,0.4200645669276581,-0.38838260890053555,0.03501165073755154,-1.2816418386862096,0.9752784057837149,0.44875790350976813
71,313.349,0.07462126126881832,0.1809808971589604,-0.05349293016925737,0.3236683499329923,-0.3089774963898613,0.059372072437377306,-1.5268377424317612,1.3381696119423765,0.2609768668409155
72,313.355,0.07628778679818035,0.1793760277652316,-0.053110309178094485,0.2318401598516962,-0.2259789681838505,0.06816825794964324,-1.5944520653638898,1.4829952168766558,0.03801023246496115
73,313.362,0.07754087220991872,0.17813992364556983,-0.05264892140354621,0.12618424350186574,-0.12719363743354242,0.06365682049262539,-1.4838065317471067,1.395090593706323,-0.16944983014363904
74,313.369,0.07809839113749628,0.1775501304865237,-0.052262534789032394,0.0331068786630387,-0.041318693722372,0.046739355082671935,-1.227979125034204,1.106854331744674,-0.3234362773138039
75,313.376,0.07807652599680844,0.17747611062138144,-0.052022669923450185,-0.03935406171675454,0.020170160824421288,0.021793463655608955,-0.8831521810643508,0.6846080082344996,-0.4033560065590995
76,313.382,0.07771710568014091,0.17767611244749493,-0.051963211318802466,-0.08045271050518378,0.04649711454642193,-0.001973928773130726,-0.5138131022972117,0.21025937671601644,-0.40451050676353345
77,313.389,0.0770708368466938,0.1779983924445036,-0.05206588060194794,-0.1041955276224294,0.0455828845988517,-0.027360152125554607,-0.17792791359444332,-0.23689523671392076,-0.335110737200096
78,313.396,0.07633016353270404,0.17821755589966776,-0.05232330366103755,-0.10742541923163643,0.017035245448007125,-0.04618929332856833,0.08382583244965958,-0.5948330628386184,-0.2134715645470501
79,313.403,0.07561857120871951,0.1781659373338944,-0.05268004845726756,-0.09588667333522853,-0.03178340709752371,-0.0557377913085028,0.2523526323500907,-0.8274861227721941,-0.06472152687349887
80,313.409,0.07509451102741331,0.17782043337253708,-0.053012822542933234,-0.07880005376765781,-0.0833845800221211,-0.05518690391391162,0.3284308009205646,-0.9264656318990361,0.0834464871332468
81,313.416,0.0746216706677087,0.17701654596457564,-0.0533643657224484,-0.056297191862134624,-0.14629753653813043,-0.045254004518921,0.32718443117797813,-0.906487561406801,0.20594604300799205
82,313.423,0.07429944212786159,0.17578786737136545,-0.05362203172132245,-0.03576810523697166,-0.20475349009309712,-0.028364852302182823,0.270925353658938,-0.7966119695943901,0.28611516667337156
83,313.43,0.07410349471501113,0.17418302002900313,-0.05374779213190533,-0.020216869863121552,-0.2537743220100999,-0.007566693578615939,0.1821559846993333,-0.6315976612455505,0.319833966197895
84,313.436,0.074005275426248,0.1725652102034127,-0.05373722698275778,-0.012522893058073858,-0.28549561985590866,0.011088409961149188,0.07936644498133735,-0.44662639576194924,0.31426308494776606
85,313.443,0.07392445241296762,0.17048026767947236,-0.0535879644481649,-0.01056939645059059,-0.3102022441266239,0.03155802849392648,-0.022451811762861724,-0.273194899574746,0.2821141119474213
86,313.45,0.07383437650916777,0.1682599985330216,-0.05330463377907652,-0.015166576063634526,-0.32416036914456947,0.04939359124555226,-0.11148586210539972,-0.13347156852701925,0.23752053106415125
87,313.457,0.07369288649445659,0.16597049590398533,-0.05290696818147728,-0.025259142425244838,-0.3299832391510396,0.06422515092557836,-0.1825585250226671,-0.036176287234588156,0.19459323663474973
88,313.463,0.07350423498142952,0.1639893696682888,-0.05248993161783811,-0.03762469525014138,-0.33039217274464816,0.07478703695348127,-0.23775329824139343,0.022276413386855855,0.16441097743945784
89,313.47,0.07317836864785802,0.16168561068924098,-0.05192846221782407,-0.055479971484506604,-0.32782467841140767,0.08563279162184413,-0.28245569214056954,0.05252688942264125,0.15157736191204949
90,313.477,0.07271731105430895,0.1594051423573162,-0.05129235944154025,-0.07625076953049086,-0.32373770214335307,0.09611085874630787,-0.3226962942633526,0.06654613808084914,0.15369849316125972
91,313.484,0.0721010513875496,0.1571558774857584,-0.05058152960596208,-0.09982342097205388,-0.31890940401555906,0.1069833799901667,-0.3640869873887093,0.0741251156905509,0.16306968364736532
92,313.49,0.07143375422764713,0.15525616915100093,-0.049910267319208196,-0.12260896566104187,-0.31432670756724285,0.11677071559339172,-0.410405990637399,0.08164321322551922,0.16960714289986858
93,313.497,0.07047062633320496,0.15307669972687535,-0.049052756905995205,-0.15257043275081034,-0.30837884218247685,0.12823225961014423,-0.4625138309631635,0.09164635150167334,0.16432206451825593
94,313.504,0.06928489302823594,0.1509414277794771,-0.048118355700432915,-0.1862105115258082,-0.30169885707372723,0.13873951340746155,-0.5175814185424221,0.10297333757941886,0.14180413693862137
95,313.511,0.06785097689471305,0.14885535611298775,-0.04711798225886405,-0.22347981233758474,-0.29432161906566545,0.14708146989772355,-0.5682503038602305,0.11196063967235878,0.10123667109196582
96,313.517,0.06640676095496516,0.1471094019590397,-0.04622248010218427,-0.25792550091397287,-0.28766309891975256,0.15141924899693993,-0.602577266429658,0.11436605856962265,0.04620678476831763
97,313.524,0.06445609448328214,0.14512236327174408,-0.04515897158281164,-0.29940777670934615,-0.28006224030716287,0.15244032796645166,-0.6059984244198792,0.10708304885338008,-0.016457905341427336
98,313.531,0.06221952327252021,0.14318548048189758,-0.044103260480001634,-0.3396125692221782,-0.2733328425057228,0.1491914156933333,-0.5653581117149536,0.08897626662380725,-0.0781983380711269
99,313.538,0.05971744368870276,0.14129012562144483,-0.04308394189118513,-0.3752673118680116,-0.26819711762324744,0.14204246682545923,-0.47343386387035824,0.06065178846335178,-0.13008449239504952
100,313.544,0.057394757066882546,0.13968838162941938,-0.04225764431006945,-0.398961562075698,-0.2657175463877429,0.13339006021439617,-0.3319465058378758,0.023630177872967003,-0.1640154843589465
101,313.551,0.05454391811626568,0.1378287676587151,-0.041364478644374134,-0.4155638523856819,-0.2656007309559596,0.12180012998408365,-0.15175705420912,-0.02022678959538379,-0.17365422315888904
102,313.558,0.05162268687038852,0.13595884308686274,-0.04055137084639516,-0.4190736464357677,-0.26866343243005186,0.1105163837240293,0.0495000857210216,-0.06900424893721693,-0.15509489125534703
103,313.565,0.04872526803188396,0.13405531440703683,-0.03980932407151416,-0.40876030742208525,-0.2752019046626783,0.10149698052753203,0.25097645719847206,-0.12149249802593824,-0.10768315648312882
104,313.571,0.046333057727330436,0.13237766332560294,-0.039212957394989575,-0.3886431274252832,-0.2840151224792809,0.09729191164638211,0.4328173628694071,-0.17807353850915153,-0.03524940734277316
105,313.578,0.04373432185400004,0.1303393350285085,-0.03852979632765282,-0.35385283638890186,-0.29836439098058876,0.09789696473699397,0.5807890321100626,-0.2399887967841484,0.05287747723459861
106,313.585,0.041409871319877674,0.12818512541476162,-0.03782100844786114,-0.310275887645584,-0.3171240700895068,0.10461385806048304,0.6888144291938703,-0.3065697442905205,0.14281752341683304
107,313.592,0.03941160991860766,0.12588358974069105,-0.03704513604850116,-0.26065594128829717,-0.3404575510730448,0.11706397032792408,0.7568502504513964,-0.3732453661125901,0.21991337179733714
108,313.598,0.03798386633736443,0.12376968545671013,-0.03629922938040459,-0.21525858579050677,-0.3641772102505658,0.13157158570307717,0.7862303971218872,-0.432998668204523,0.273208315190024
109,313.605,0.03666488188435456,0.12111078823527686,-0.0353096335837507,-0.16159411506918753,-0.39550771015839487,0.15117007048354664,0.7772704844600975,-0.4798075808438758,0.29778861853659344
110,313.612,0.035714900916804196,0.1182232309797807,-0.03418030521644874,-0.10982901851643566,-0.4295086485542064,0.17149517731678135,0.730892607573366,-0.5108012231174953,0.2943782662732095
111,313.619,0.03511220064174701,0.11509210497907701,-0.03291235837702784,-0.062371060071207796,-0.46509878021763496,0.1907753482317877,0.6517830970379787,-0.526108327716542,0.2673446728983174
112,313.625,0.03484401471786299,0.11220851746538414,-0.03172445925621599,-0.02702424789055311,-0.4960970576845041,0.20519102537402428,0.5496741515576438,-0.5275398758669042,0.2226519838704504
113,313.632,0.03477347014393075,0.10861030334391422,-0.030241353764221345,0.006868655338498564,-0.5319641198775952,0.21855340090985714,0.4377870749432498,-0.5174379764232815,0.1666574726375113
114,313.639,0.03491375895174157,0.10476454805482817,-0.0286787769947499,0.03321386117885086,-0.5668231055747767,0.2278971046530941,0.32977388304614597,-0.49816982024403983,0.10556899011204515
115,313.646,0.03521430998984289,0.10068023208468112,-0.027065405581225572,0.05265786399289242,-0.6001243144664032,0.23306615635352734,0.23672225737249622,-0.4720525402854479,0.045030033449358686
116,313.652,0.03556572903627775,0.09699886436856374,-0.02566394709212319,0.06448181815261303,-0.6269982575784885,0.2340866733494613,0.16518033456855627,-0.4414073096535056,-0.010342109236750168
117,313.659,0.036050952131980514,0.09250776843761724,-0.024033480245036685,0.07415335204807844,-0.6561720084053075,0.23176099724634994,0.11659737736186121,-0.4085625963883326,-0.05741588014828666
118,313.666,0.036594614909313684,0.08782034220749768,-0.022429447953655354,0.08117887004700297,-0.6830926287707529,0.2265339431479884,0.08808932572575237,-0.3757629193273481,-0.09487302871480412
119,313.673,0.037182361075059976,0.08295209515269382,-0.020869903622278273,0.08674860588038862,-0.707835101172213,0.21905015153085886,0.07418352945434524,-0.3451028022986452,-0.12316536118604822
120,313.679,0.037715484690249164,0.07864651279602719,-0.019579185986566498,0.09095926585017515,-0.727359017723405,0.211189060375088,0.06893907849727683,-0.3185256726404266,-0.14403737558977195
121,313.686,0.03836859313766505,0.07348096444603902,-0.018137365517418735,0.09564314769708848,-0.748511939415016,0.20075964509540695,0.06752464318749796,-0.29775939023879583,-0.15982102019773942
122,313.693,0.03905421290019314,0.06817147573773907,-0.016771995701896084,0.10024821302508231,-0.7684848343838833,0.1893460164822144,0.06664277900605856,-0.2841458903281933,-0.1727121839672006
123,313.7,0.0397716561367961,0.06272449852235223,-0.015489448880625116,0.10473556886133067,-0.7877943700112442,0.17709593245208619,0.06409520669737909,-0.27843258236554486,-0.18419093877150886
124,313.706,0.040410869999436654,0.057948394333232775,-0.014460319059447104,0.10833571868450444,-0.80424035968764,0.16594734127227967,0.05827583143003372,-0.2805754946813989,-0.1947557004903959
125,313.713,0.041181992039299946,0.05225021332594095,-0.01334659422124795,0.11198486413342068,-0.8238113566802893,0.1522597553558224,0.04804110507773344,-0.28962058924810097,-0.20402867881045747
126,313.72,0.04197560518939602,0.04641225318524021,-0.01233064560440008,0.1147617501795813,-0.8441772549473011,0.1380112780290758,0.032862772718270546,-0.30373474374379,-0.21109713091301452
127,313.727,0.042784445623133834,0.040428035534858485,-0.011415738938251284,0.11633551660436371,-0.8655992166029984,0.12339062658680182,0.012988516961810057,-0.3203887309495762,-0.21487187823259515
128,313.733,0.04348267346703127,0.0351764500834637,-0.010713277827053757,0.1164070980270036,-0.8849292671869055,0.1107630771445888,-0.01055542572135774,-0.3366501349837351,-0.21434535164552262
129,313.74,0.04429190617387905,0.0288995124967007,-0.009988766199422386,0.11480224678648343,-0.9084814718869559,0.09624024503565495,-0.036201512260784725,-0.3495374359876723,-0.20877371577806886
130,313.747,0.045083681697911555,0.022455337426514548,-0.009363924965019813,0.1114193315083558,-0.9327114053077715,0.08228582193638119,-0.062358875060215806,-0.35639559111414953,-0.19778489785258838
131,313.754,0.04584555070856546,0.015840864241154277,-0.00883347014612247,0.10625752867831893,-0.9571380762223842,0.06927269774846566,-0.08802895448207505,-0.3552693334769681,-0.18134920831607515
132,313.76,0.046465345340926875,0.01003620780355485,-0.008447935696919057,0.1003406821097896,-0.977747402986517,0.059238785319942325,-0.11308785803994276,-0.3452528211911954,-0.15970889778439346
133,313.767,0.04713756727529595,0.0031112285682880604,-0.008068469335217888,0.09172272770980996,-1.0008180928025803,0.049180175166028406,-0.13799407979884065,-0.3269059345233098,-0.13334618375740975
134,313.774,0.047743441181634094,-0.0039701397670416265,-0.007752578429488989,0.08138410267239266,-1.022430003004456,0.04107436932787826,-0.16321916507391457,-0.3027516433698346,-0.10281443431136013
135,313.781,0.04827080863657056,-0.011196816258272572,-0.007485657899726901,0.06929231302363256,-1.0423347087743384,0.03518863917552096,-0.18907209060467256,-0.27716696200416485,-0.0686648360191399
136,313.787,0.04865080002323236,-0.01749778230843303,-0.007283399999166759,0.05737148253089789,-1.0579873079556832,0.03223066101150975,-0.2161233802506718,-0.2548733433470805,-0.03187844036389634
137,313.794,0.04899697352405592,-0.024962988747362552,-0.007060941972140172,0.04153523199004986,-1.0749288174512281,0.03132877528175552,-0.24526180344280488,-0.23871328250761317,0.005602226052948804
138,313.801,0.04922502930835405,-0.0325436136362147,-0.006836065218558719,0.023623563523653617,-1.0909640079335516,0.03292172574147058,-0.27659016046167234,-0.2284679664353271,0.040807985668220616
139,313.808,0.04932015582549672,-0.0402344099998568,-0.006592277983305551,0.00355544137423321,-1.1064063816769076,0.03673177004509903,-0.3080895401032087,-0.22144171564905818,0.07019669857667528
140,313.814,0.04928469774784419,-0.0469112686111997,-0.006357715914636601,-0.01537480059168465,-1.1192131554267652,0.04145558617751126,-0.33535961483510596,-0.2138674453045278,0.0903683646674728
141,313.821,0.04909442265253067,-0.05479570745225249,-0.006044829867896417,-0.0389895123549981,-1.1334836563009938,0.04794042717676302,-0.35264908373158305,-0.2019000149456456,0.09856584977584959
142,313.828,0.04873651978327052,-0.06277620743240517,-0.005686262602972179,-0.0632684502915156,-1.1466591951880865,0.05450736280234924,-0.35471167763799205,-0.18196600271118524,0.09276017099678506
143,313.835,0.04821036323408233,-0.0708428087247812,-0.005284953634521607,-0.08706199233357406,-1.1580840312034177,0.06015234246916071,-0.338507196203198,-0.15089372630136455,0.07170489437962314
144,313.841,0.047631307775768565,-0.07781399565346826,-0.00491459122179872,-0.105956493770093,-1.165644945014507,0.06330179510454545,-0.3037271188255061,-0.10610582030062342,0.035346702763461704
145,313.848,0.04682282091716493,-0.08599178455037228,-0.004468986054217753,-0.12503975154506583,-1.1708661683849715,0.06401396706135429,-0.2522588054477219,-0.04601321176903925,-0.01459775159815669
146,313.855,0.045894719812586506,-0.0941898343651406,-0.004031581321133463,-0.14013199262000797,-1.1714337786900162,0.0609588138197821,-0.18744984924596253,0.029476028034552633,-0.07441337107501508
147,313.862,0.04487762128413572,-0.10237207222996199,-0.003630473515987228,-0.1504675869371507,-1.1663484684001395,0.05364341622191732,-0.1136750963524788,0.11868321055422117,-0.13871890135118992
148,313.868,0.04396158607507871,-0.10934042533206365,-0.0033386156163130788,-0.15487748274995364,-1.1564358989779924,0.04364255033658959,-0.03621964557684632,0.2182503811817814,-0.20121593488662565
149,313.875,0.04287775725716384,-0.11737039534947229,-0.0030880054974413455,-0.15478789379693078,-1.1378412488514091,0.027960340769568815,0.03882979723116268,0.32350008192437374,-0.255681303707581
150,313.882,0.04181151809294949,-0.12524488246867108,-0.0029586766984905665,-0.1498518674069525,-1.1120122137752062,0.008990744644913003,0.10498009241295664,0.4290223704402257,-0.29699311691930436
151,313.889,0.040793908397977925,-0.13291383465274803,-0.0029700874542271547,-0.1408937597275711,-1.0791169816737824,-0.012250960569650127,0.15601212582306578,0.5293719582303394,-0.32187863161133423
152,313.895,0.039978807522764975,-0.13928712903598342,-0.0031010563557995648,-0.13080653201135614,-1.045314479414661,-0.031405339954691636,0.18685819571936887,0.6195933615366993,-0.3291890753402928
153,313.902,0.039108988905711295,-0.1464463612386468,-0.003398851632759309,-0.11771307286094553,-1.0001804356305581,-0.05367902489088876,0.1946164494128706,0.6953756728596572,-0.3197491432935994
154,313.909,0.038329940659381986,-0.1532736287337853,-0.0038485693278173905,-0.10487214037584021,-0.950467420121909,-0.0748117451256142,0.17950089472448624,0.7530005531448147,-0.2959473552109968
155,313.916,0.03763485631272742,-0.15974160005317153,-0.004439186686590585,-0.09372338723960812,-0.8975243854156898,-0.09393607166660646,0.14531522891826415,0.7894814712593644,-0.26123509724957406
156,313.922,0.03709408326128606,-0.16498618772330756,-0.005045248128394267,-0.08653429657331695,-0.8506715046213011,-0.10808440893365616,0.09904584804674933,0.8030732677583737,-0.21967453267780981
157,313.929,0.036506184831950346,-0.1707490405090114,-0.005849321037794551,-0.08143668323813245,-0.7958578627348513,-0.12165070803955474,0.04947183667949663,0.7939084272242815,-0.17557618585062487
158,313.936,0.035942683114670235,-0.17613284908311072,-0.0067379619266883075,-0.07956380741321366,-0.7423731584352853,-0.1322466887870514,0.0050939302794389815,0.7643550047916816,-0.1331350530241353
159,313.943,0.03538298771243885,-0.18115128206820105,-0.007691208902956614,-0.08034916465278318,-0.6914648373037832,-0.14010959014655588,-0.027975116284240632,0.7188461504438168,-0.09594860404235542
160,313.949,0.03489424296137296,-0.18517809467216165,-0.0085461996975852,-0.08256575236840254,-0.6508060306766684,-0.14488734139494563,-0.047367898085558496,0.6631686601496954,-0.06644974294215476
161,313.956,0.03430404033253199,-0.18958157920472737,-0.009573860437387184,-0.08606357015746846,-0.6073324071983548,-0.1487300128339826,-0.0545401450444582,0.6034244454989504,-0.045505524701571536
162,313.963,0.03368859005998474,-0.19369494462700185,-0.010624329947726413,-0.08977936485590716,-0.5679148563077946,-0.15140413297701136,-0.05371860061533219,0.5449960036141395,-0.032404294306866414
163,313.97,0.03304763508705012,-0.19754579967288688,-0.01169107938473122,-0.09335062741099473,-0.5323294425157129,-0.15338142045271555,-0.05032923733384402,0.4917760932226643,-0.025203479884343172
164,313.976,0.032478726274317915,-0.20065702668572732,-0.012615469170538794,-0.09628564350063283,-0.5047462284359743,-0.154748508151257,-0.04943354573179307,0.44579226022009455,-0.021264569808055765
165,313.983,0.03179223446826921,-0.2040877729451096,-0.013703401323227579,-0.09985487251314284,-0.4754669885296895,-0.15608924975960212,-0.054555045464922826,0.4072510436681232,-0.017797600347447765
166,313.99,0.031078629877217528,-0.20732207796635047,-0.01479964198112926,-0.10403215350147774,-0.4486201603956119,-0.15712236678351144,-0.06714898739126304,0.37492455391277163,-0.012302004772069237
167,313.997,0.030331920060607222,-0.2103757248866738,-0.015901318880266992,-0.109313508387028,-0.42385038826757776,-0.1576424615413304,-0.08672196127393517,0.3467365383931479,-0.0028508254231438828
168,314.003,0.029658544328143133,-0.2128599457936738,-0.01684638113958893,-0.11514506910205612,-0.4042232474029752,-0.1573782915674629,-0.11149593899630746,0.3204005867445477,0.011830105601007149
169,314.01,0.028822384129631604,-0.21561570357188942,-0.017942708914829027,-0.12375784475821004,-0.38313611780092693,-0.1558582156437694,-0.139435117441278,0.2939676401228827,0.03245692480889494
170,314.017,0.02791899744288507,-0.2182303686662555,-0.019022695442559905,-0.13435263716918658,-0.36391105201742474,-0.15270936370768984,-0.16924149954730958,0.26614982487684363,0.05928408580496098
171,314.024,0.026934063130743684,-0.2207173790965296,-0.020073478911915445,-0.1470571662995798,-0.34666335663181347,-0.14751448467939332,-0.20090176709563604,0.23635745001458133,0.0920674104695874
172,314.03,0.026013192775862518,-0.22275844970320538,-0.02093896961683166,-0.15989961866225136,-0.3336935122633096,-0.14098241696070102,-0.23562012919351186,0.20449456939961833,0.12996110143213263
173,314.037,0.02483252784284788,-0.22504923778879884,-0.021889631535369106,-0.1774332193416906,-0.3208173693343558,-0.1306352740498038,-0.275216924654838,0.17064862217940818,0.171500309545981
174,314.044,0.023518836834333062,-0.22725826340887625,-0.022757676280162707,-0.19790706880513131,-0.3103328078301653,-0.11737751017676196,-0.3212835393430204,0.13481644501429563,0.21476131243013769
175,314.051,0.02204990014033856,-0.22940277337015139,-0.023522558911064147,-0.22178912947871152,-0.30238432396229337,-0.10116038436635034,-0.37451430260426294,0.09676063694732606,0.25772057662036874
176,314.057,0.020647769018410797,-0.2312035875852538,-0.024080414067813683,-0.24558791116164455,-0.2978870810689769,-0.08479133454927354,-0.43441914843217294,0.056103079452431065,0.2986722730275286
177,314.064,0.018816484772312972,-0.23328053398769433,-0.024597654902922473,-0.2776361591516457,-0.2955261767707446,-0.06299176119598923,-0.49929851079405874,0.012681274553140007,0.33645282366760687
178,314.071,0.01674500442293418,-0.2353516665051327,-0.024953676953358563,-0.31421536924187105,-0.2962259710683671,-0.03872882464282101,-0.5664275916888546,-0.03306960572555878,0.3704417414096151
179,314.078,0.014401475204337435,-0.23743882154518903,-0.02513216917105453,-0.3553644075050155,-0.30010404038071514,-0.012268951842119156,-0.6324393073308116,-0.07991697007109097,0.4004600096877907
180,314.084,0.012152250469982159,-0.2392575931042752,-0.025132792655659143,-0.3943771706098296,-0.30615314597844534,0.01206112364058316,-0.6936255943643915,-0.12569539832862775,0.42653240473120546
181,314.091,0.009218672830355781,-0.24143584011553565,-0.02494324176110251,-0.44378786928282205,-0.3162031429526661,0.04209627480413112,-0.745942706532221,-0.16710874038522142,0.44853418385996185
182,314.098,0.005928252721358869,-0.24369331166129038,-0.024538713707455424,-0.4963321618584813,-0.32878872726251235,0.07348316909495281,-0.7849220660054134,-0.19956909877311166,0.4659151013786774
183,314.105,0.002262824374473922,-0.24604490880582344,-0.02391098511323363,-0.5509330801078981,-0.34309617117502383,0.10586785782543184,-0.8058619792052437,-0.21727468762260002,0.4776046743553077
184,314.111,-0.001184888358977398,-0.24814152018570163,-0.023191076242834504,-0.5983044977146089,-0.35577428878765677,0.13410176564207088,-0.8043181063126937,-0.21366138170085344,0.4820811108609052
185,314.118,-0.005562920826211234,-0.25067949069752776,-0.022137080333631844,-0.6525619214941648,-0.3693601431621536,0.16703992270133047,-0.7764583137555299,-0.18215907466547893,0.47756382567956374
186,314.125,-0.010310589778298584,-0.253300839779363,-0.020854805152262044,-0.7039149219583943,-0.3795967373616639,0.1993244148326361,-0.719698462198769,-0.11608152736049225,0.4630367472926413
187,314.132,-0.015398701533696565,-0.2559726237743744,-0.01935179278744439,-0.7498312938685615,-0.3837701183553289,0.23010768940067206,-0.618063505740899,-0.005508880130111613,0.4338262288660723
188,314.138,-0.019987910168947493,-0.25826010050120096,-0.017900835494691188,-0.7799049178889363,-0.37872212392377225,0.2535447415193353,-0.4041552274831924,0.17709293896027267,0.3628118387979918
189,314.145,-0.025493265254374037,-0.2608309968805741,-0.016058399551707167,-0.7930536779460949,-0.3558196987537451,0.2728655279042939,0.021069404316574912,0.49016346853612097,0.2000944218937629
190,314.152,-0.030962723661750204,-0.26314543405896945,-0.01413295845064714,-0.769648724160265,-0.3054480665016019,0.2772605009696062,0.6608280482375094,0.9774013909391824,-0.07204798502813271
191,314.159,-0.036109728158700095,-0.2649764720509071,-0.012247959621540822,-0.7009239892529392,-0.21770564548019572,0.26131059306038584,1.3414498494070686,1.5789520171007987,-0.3926485775583035
192,314.165,-0.04003738002326955,-0.2659558209876074,-0.010772728952900691,-0.6082932989306271,-0.10874400008501953,0.23043296315064313,1.8071173752778742,2.1247131962886168,-0.6568987503465803
193,314.172,-0.04385227465055048,-0.2661692248628738,-0.009333001008727075,-0.4816765945774302,0.047771464294663446,0.18091787804152448,1.881828517942004,2.4353255639861864,-0.785710823159539
194,314.179,-0.046811603204004806,-0.2652515361772435,-0.008252414076938571,-0.36384584927292546,0.2144253030302253,0.12782124532890585,1.5511406642056011,2.4200921878686734,-0.7612462406116737
195,314.186,-0.04905907340624537,-0.26320748958671225,-0.007523701251153831,-0.2782884942239206,0.3695880085497139,0.0803824191808711,0.9415513953063104,2.1005342826350217,-0.620872049324262
196,314.192,-0.050624201730499946,-0.26066554043006135,-0.007133836083489016,-0.243420947191779,0.4777283769965419,0.04957263670677987,0.24361537186953858,1.5752152834353383,-0.4263691075758731
197,314.199,-0.052343103878669944,-0.25701578431032723,-0.006865946066813832,-0.24769395228501292,0.5650590857838917,0.026967368057503778,-0.36810830248967524,0.9691429920289767,-0.23222971929189914
198,314.206,-0.05421520448701657,-0.25289638323711855,-0.006713533321000892,-0.2871919358136396,0.6119126494177489,0.016579130746162192,-0.7826555313402388,0.3959238214911126,-0.07042896672609193
199,314.213,-0.05643507336950653,-0.2485729716643223,-0.006599960126410002,-0.3470563163258963,0.6233477999517243,0.015870353422640655,-0.9614781654650316,-0.06276358156741162,0.049778917349363495
200,314.219,-0.05868376533126581,-0.24487053316781499,-0.006488479580942869,-0.40250767093071854,0.6107983655565131,0.021289828399911514,-0.9233433452813442,-0.36379847565125073,0.13443196598987828
201,314.226,-0.06169919036017629,-0.24069854605021992,-0.006299801452914218,-0.45904233732880245,0.5811979537555069,0.032618208179664265,-0.7237799667581835,-0.4986020907569691,0.19561753481517763
202,314.233,-0.0650518227135586,-0.2367482168850149,-0.0060186620455242625,-0.4988526207797417,0.5474675220165482,0.047707336788837186,-0.43608264690297777,-0.48412556966979836,0.24400043896972898
203,314.24,-0.06861211224229545,-0.23301666612209632,-0.005621230503549762,-0.518372958858633,0.5186898388165725,0.06584453234665304,-0.13263750229249863,-0.3543050054998267,0.2844222001229245
204,314.246,-0.07172251640371825,-0.22994934338288528,-0.005173224019368808,-0.5184284282871714,0.503751074258575,0.0834909623810334,0.1307520664389814,-0.15347167522422842,0.31538949345450457
205,314.253,-0.0752969706417543,-0.22643321372758055,-0.004511064735008118,-0.5028442111509691,0.500857398684916,0.10569740457902854,0.3232901872850926,0.0691651638654774,0.33158962488368665
206,314.26,-0.07872514733916673,-0.2228870191084369,-0.003692019915778284,-0.4766348452518833,0.512341063926834,0.12831540091504257,0.44031310811917906,0.2654085398941363,0.32738001994181004
207,314.267,-0.08194887403079922,-0.21922123822326467,-0.002718432630970679,-0.4444299237853119,0.5350249032644839,0.14985239474407436,0.4979691935128318,0.39547942425362376,0.3000948882368643
208,314.273,-0.08452536780174515,-0.21593773117922238,-0.0017705623986493165,-0.4144013331925636,0.559477444744388,0.16610434936153787,0.5227188291590255,0.4356756755948567,0.252317832294133
209,314.28,-0.08729846778672783,-0.21192311125242666,-0.0005544454576320492,-0.3779129482369254,0.5875568200628875,0.18135763378882605,0.5403611058386824,0.38240987477023597,0.19208278004257298
210,314.287,-0.08981059699305706,-0.20773421059257738,0.0007538399644104411,-0.33983825357091557,0.6092719398931978,0.1924382010801898,0.568935564306652,0.2502546897357707,0.13074676612852645
211,314.294,-0.0920471532680396,-0.20343136322757988,0.0021261820219121196,-0.29917782499506695,0.6201130215337838,0.19965952963429523,0.6156958141331846,0.06559750212465527,0.0796448283245161
212,314.3,-0.09372809384940542,-0.19971733714591638,0.003335318174365749,-0.26113570212419895,0.6178956723481378,0.20338585451499014,0.6773765014447262,-0.14096639927218285,0.04701496819713398
213,314.307,-0.09538535006100712,-0.19544998310839135,0.00476901282784651,-0.2123660726188075,0.6013483383724322,0.2062411893363631,0.7435144101992417,-0.34113602177283203,0.036174494969505054
214,314.314,-0.09668635042472101,-0.19134315484703393,0.0062225158723539994,-0.15934831701346835,0.5720311648717081,0.20904539480833714,0.8011445888415337,-0.5130124678658486,0.04552532743881829
215,314.321,-0.09760478750118512,-0.18747770564474464,0.00769973084353466,-0.10306227626180416,0.532382892924444,0.2130160255286927,0.8387350774089621,-0.6421299813099899,0.07015800174095037
216,314.327,-0.0980743206040628,-0.18440353425569164,0.008993241430139225,-0.05344875803149561,0.4923409034313698,0.2181541700081886,0.8476552200096833,-0.71891888156239,0.10449030593870427
217,314.334,-0.09824821745298395,-0.18113166655812793,0.010550348972508766,0.0037639440540596023,0.4424784387290218,0.22673369923993353,0.8192224915581762,-0.7338115091801136,0.14547212427049921
218,314.341,-0.09803456025797118,-0.17820345139300695,0.012178170677635372,0.05728096880669132,0.3941544655906626,0.23835821651019323,0.739982588743557,-0.6740953160958755,0.19320526797285173
219,314.348,-0.09747339620826298,-0.1755886115765351,0.013899356990687027,0.10305161682410971,0.3529426248293292,0.2534093015042141,0.5935337501659931,-0.5266013179317318,0.24530431463574615
220,314.354,-0.09676989077385792,-0.17354274685145615,0.015467003829579301,0.13145019464534477,0.3290122835335254,0.2691396447956658,0.3717492574995032,-0.28680391545296874,0.28937855503349713
221,314.361,-0.09579458333941132,-0.17127054168252087,0.017422224529297606,0.1472090723392004,0.3201891933046631,0.2894948408377364,0.08738168772190595,0.029745396740638076,0.3036649713216089
222,314.368,-0.09478040237051669,-0.16897966730454442,0.019517394554350222,0.14255691877334375,0.3343463432595739,0.3091251663197264,-0.2229210139037255,0.38271961293284706,0.26825963324995267
223,314.375,-0.09387039469346158,-0.1665072665571298,0.021734857309748636,0.11744527467078687,0.37205387028695824,0.32443562093651085,-0.5087004325502897,0.7158797202414321,0.17780661820109633
224,314.381,-0.09327434515222499,-0.16412579719661513,0.023701186273286625,0.0812379057423403,0.42176924988833286,0.3310073669125654,-0.7220076049758349,0.9739729002289708,0.04557057911179519
225,314.388,-0.09289221253126613,-0.1609222532352147,0.02601145434689267,0.02794284310296899,0.49352902479685007,0.32906922554583334,-0.830730664881375,1.1167301258798705,-0.10203784124603683
226,314.395,-0.09289552612629336,-0.15719808860994078,0.028274469472162007,-0.028889584539320008,0.5705180109949378,0.31750652453065814,-0.8250678462527864,1.1263246583163569,-0.234838549924879
227,314.402,-0.093283085292531,-0.15294782783033906,0.030429516091192387,-0.08184160581421515,0.6438422117475421,0.2982210809061529,-0.7176759995736189,1.009957521998658,-0.32703800831414265
228,314.408,-0.09388506641536003,-0.14892518015397055,0.03215800060117985,-0.11881876846116678,0.6970403470355591,0.2779404224202493,-0.539197742454327,0.7982758464388453,-0.3623125339473757
229,314.415,-0.09482133854081808,-0.14388528866608166,0.03401966600035865,-0.14868755309808626,0.7429286495030933,0.2539639773447424,-0.331021799151133,0.5386683253367659,-0.3362351738541023
230,314.422,-0.09591832371772374,-0.13858601000401558,0.035726215061735345,-0.16473678316045293,0.7711509682289903,0.23362146876253628,-0.13656848943162028,0.28358184530915215,-0.256438706543138
231,314.429,-0.09708688733924137,-0.13314459229431286,0.03731388152519274,-0.16913853727562622,0.7835398059832961,0.21999752080007723,0.00832448837968386,0.07736383235119802,-0.14049159694800514
232,314.435,-0.09809352972425155,-0.1284413077133991,0.03862042067367666,-0.16640892439283145,0.7842217209804756,0.21551552869248433,0.08445652867784832,-0.054185173068084604,-0.011853737002987601
233,314.442,-0.09923690172659123,-0.1229713832900214,0.040140238199700376,-0.16026879056113025,0.7786138285548928,0.21871805017112364,0.09443472898031,-0.10919936484616616,0.10515839626516485
234,314.449,-0.1003401299145291,-0.11754723586970733,0.041706749299555354,-0.1549392631351794,0.7711425772480195,0.22885654978712094,0.06083971455536773,-0.10847366626371513,0.1902242446975651
235,314.456,-0.10141519835459586,-0.11217270192320765,0.04335927011689249,-0.15222314831224498,0.764438550322223,0.24329225516600728,0.01829360890902959,-0.08684647512115307,0.23035640731993678
236,314.462,-0.10232663669108513,-0.10760075456551876,0.044858851602224484,-0.15158963051893995,0.7595439022478977,0.2565682399470071,0.0032400032591762455,-0.07952525815331772,0.22090149016330943
237,314.469,-0.10338217185259824,-0.10230669542800769,0.0467012341672305,-0.1499918441988739,0.7530444227541866,0.2698267786257637,0.043311100039238805,-0.10983544515096959,0.16538270558278734
238,314.476,-0.10440904614867638,-0.09707077360994053,0.04861894483111186,-0.14340081182324318,0.7429332395496488,0.2780905539113747,0.14871697349471158,-0.18475133902188318,0.07538031267829338
239,314.483,-0.10535769930811377,-0.09192821653057671,0.05057092901821064,-0.1276429480158159,0.7263687831246757,0.2796192138307364,0.31038443240015196,-0.29784994028381734,-0.03084318970967869
240,314.489,-0.10605156304910267,-0.08763467676497169,0.05223426390076826,-0.10364496564823888,0.7048111387503898,0.27482574702440854,0.5053199575695724,-0.4349060424553489,-0.13208933758388813
241,314.496,-0.10663169558348938,-0.08282280154039272,0.05411705287316545,-0.062107187033559025,0.6700103539854778,0.26311395937440357,0.7048727939860464,-0.5790060846621006,-0.20913065526343189
242,314.503,-0.10687580134425437,-0.07828807867842004,0.05590381894273007,-0.007637316042100842,0.6256247494343612,0.24739063192940947,0.8820932222644209,-0.7141573605827042,-0.24896454238256427
243,314.51,-0.10670118528734282,-0.07409389657199841,0.057575933978315896,0.05752761801679318,0.572712995256675,0.23035652109477173,1.0164707713768464,-0.8274133134758865,-0.24732000023831263
244,314.516,-0.10616956667851284,-0.07081098841985246,0.05891780013588854,0.11967858492568648,0.5215897221200809,0.21693219809397374,1.09607418225484,-0.9102943691119452,-0.20897999349838267
245,314.523,-0.10506586284531357,-0.067384508685026,0.06039368020593473,0.1956653674167359,0.4574044878296353,0.20474782191892155,1.117781648547877,-0.9597263177368414,-0.1460087473791552
246,314.53,-0.10343148719304358,-0.06441528706360415,0.06180047726887303,0.2712991046638584,0.39094454686860525,0.19719419606642588,1.0857882977256839,-0.9765673768923063,-0.07406424543844735
247,314.537,-0.10128096911821285,-0.06191117064937392,0.06317125134130389,0.3431346310016266,0.3245172857680928,0.19445553891354111,1.0071217272563975,-0.9587741981894714,-0.005725843149626021
248,314.543,-0.0990553765506578,-0.06012739232814871,0.06434258725708791,0.39872955817984923,0.27007548797080366,0.1959897663459385,0.8825798928332751,-0.8917319310537524,0.05787506272308143
249,314.55,-0.09607428977581858,-0.058433647566851314,0.06573668887209831,0.45300952034503267,0.21385158668525045,0.20232498079960465,0.6988531774417688,-0.7463373174521971,0.12669981987951406
250,314.557,-0.09276693569559258,-0.05708554613853295,0.06719291993818576,0.4919487882902932,0.17132024997686393,0.21374103808222333,0.4356326181366744,-0.4928024997230617,0.2059041429594203
251,314.564,-0.08926017760403249,-0.05596043994521583,0.06874744879461606,0.5099820950118723,0.1501386623992263,0.23041006375468734,0.08976324579432284,-0.12431773654875417,0.27974373511899997
252,314.57,-0.086219309296918,-0.055041849929384885,0.07018245651836247,0.5036406740310515,0.15605800954586066,0.24792584416302904,-0.3053115720440479,0.3255195450719565,0.3156271070620373
253,314.577,-0.08281283438369687,-0.05381610180809082,0.07199004987905583,0.4696378726028626,0.19415573939504965,0.2685294017489899,-0.6853515108979086,0.7844482493521415,0.2846523705212115
254,314.584,-0.07972544913353101,-0.05222306191548374,0.07392532651700144,0.4124721988724684,0.26099851563522003,0.2844067805207894,-0.9801560413491709,1.1629992550052544,0.17793107385547277
255,314.591,-0.07709267495218704,-0.05009001873798072,0.07593856879997336,0.33974899579669915,0.34844239222234985,0.29080530032792085,-1.138616222536407,1.3846561358939922,0.008488194327033531
256,314.597,-0.07525556430607222,-0.04775272818528388,0.07766688176294967,0.2726212195777824,0.430654458680257,0.28529902066688834,-1.143093169193768,1.4097764331040321,-0.1956496157794292
257,314.604,-0.07360586575641669,-0.04441939890297288,0.07959237528777478,0.1987212231806039,0.5217253362650617,0.2648419864256088,-1.0099646726679337,1.243550721275601,-0.40036094094235497
258,314.611,-0.07242975002398576,-0.04050637264954065,0.08132924767294485,0.1373118432279906,0.5962821647147779,0.23140726647976984,-0.7791821949479747,0.9286437575339804,-0.573751230632621
259,314.618,-0.07162233348125684,-0.03615714838197246,0.08279699643935538,0.09337859755153553,0.6463533403038171,0.187949523922941,-0.5008018880517874,0.5301673724937749,-0.6923791883555953
260,314.624,-0.07112609230822681,-0.032221641641598534,0.0837979040936394,0.07203512679101544,0.6654822398145618,0.14568636083680453,-0.22467421780217184,0.12003425975418548,-0.7441685653263345
261,314.631,-0.07064806049522135,-0.027577249979281033,0.0846408963570009,0.06454539121155382,0.6614868065716939,0.09516857155397865,0.006462652049280052,-0.23644020420142844,-0.7276545425559997
262,314.638,-0.07017589919935077,-0.023034245395705397,0.08514166841587019,0.07035783617994379,0.6365145030204172,0.0479091595514307,0.1628814728451485,-0.49112159027356944,-0.6492365612944977
263,314.645,-0.0696358977495227,-0.01871207317580854,0.08533646876880949,0.08392829234225431,0.5983918455206592,0.007748084145472511,0.23249036047497681,-0.6195724649915787,-0.5208462879070861
264,314.651,-0.06909230387931335,-0.01523130076751118,0.08530536308673532,0.09726966439332803,0.5618656239062545,-0.018116644836809543,0.22099008565120676,-0.6219735476369342,-0.3583098283391535
265,314.658,-0.06836725636605591,-0.011435317173781415,0.08511391014812425,0.10988676796579186,0.5227011171586173,-0.036584194766315206,0.14660605931033371,-0.5190745239007962,-0.1797376024346426
266,314.665,-0.06757642810757471,-0.007880230862817124,0.084835752173492,0.11606416302867609,0.49303782883045444,-0.04288951227141381,0.0333707949636191,-0.3451579343404898,-0.003966240077300074
267,314.672,-0.06677109414409926,-0.0044871911409405645,0.08455321997565736,0.1140312551070006,0.4764020917050127,-0.03783397282414147,-0.09259905688425561,-0.13952009027778572,0.15125811264099714
268,314.678,-0.06611308144587179,-0.0016356556760698249,0.08436351944897616,0.10530631096985422,0.47410972992303363,-0.025399536069887554,-0.20396650958296733,0.06160147444091804,0.27139511261303456
269,314.685,-0.06543329186610469,0.0017182060280360734,0.08425994768313323,0.08891928324917635,0.48413647124939535,-0.004192397028072059,-0.2734654289679479,0.2305251168110693,0.3464695591527087
270,314.692,-0.0648770646032038,0.005176967538106333,0.084316806119083,0.07000279186525,0.5040811030556871,0.020437664442281147,-0.2776617983701433,0.35055672360997,0.3711210982171258
271,314.699,-0.06444474074172676,0.008797660670540153,0.0845458291449337,0.05351831141381582,0.5304026490675222,0.04499748580073257,-0.20260940102508943,0.41631491121556236,0.3444231311267777
272,314.705,-0.06414588843423977,0.012055006774352457,0.08487012954199122,0.046099124415651435,0.5553793855416812,0.06310264655227833,-0.0495727746142046,0.43265785978766247,0.2709810674402096
273,314.712,-0.06380970679662343,0.016044108632224587,0.08536393802090021,0.04995277204609158,0.5843640024209698,0.07798549027876261,0.16184783083880408,0.411801676176427,0.1626268480769913
274,314.719,-0.06339301040568136,0.020228384484464547,0.08593391541703936,0.06910333965155539,0.6111433839324507,0.08486519433230526,0.39609914844712146,0.36840888098811697,0.03781160231964861
275,314.726,-0.06278850766823775,0.024588366200728587,0.08652261860202187,0.10361172818935332,0.634565677856385,0.08333571566257826,0.6092940880017103,0.31399377213625657,-0.08237257937460328
276,314.732,-0.06204611975581215,0.02844579004461802,0.08699954867895317,0.1438509092846634,0.6512422701006194,0.07564097664709393,0.7584574239865136,0.25285261081663357,-0.17917575824825432
277,314.739,-0.06085078613849577,0.033056598892622545,0.08747873978945007,0.19767298137969114,0.6661316864818579,0.06127076921017938,0.8096351340641487,0.1809467973502381,-0.23949662767706828
278,314.746,-0.059280454773564376,0.03775174651375458,0.08784801648854627,0.25099312288609993,0.6753390624120512,0.0442368591029456,0.7438338022879527,0.08730778879245077,-0.25678206680128784
279,314.753,-0.05736685544337393,0.04248441959910847,0.08809913968541463,0.29574954288220845,0.6768532476880916,0.027512625716534612,0.5601332578505849,-0.04319238092302984,-0.230474274162651
280,314.759,-0.055518611946735186,0.04652182041534238,0.0882292832452112,0.3203316226610983,0.6689470243834513,0.015868560882112512,0.2754249187871212,-0.22554442198120692,-0.16531378238967154
281,314.766,-0.05325273801121625,0.05112107382141699,0.08831199771033495,0.3270609303438487,0.6451253773512139,0.007764143438939813,-0.07936822889533279,-0.4684932836928696,-0.07080638513999771
282,314.773,-0.05102874345106986,0.0554883045016501,0.08836260867488814,0.3083660868403788,0.6026548170002111,0.006696132147676991,-0.465301343092088,-0.7688758295683938,0.039690144301614466
283,314.78,-0.04902717269042714,0.05948125939948531,0.088432349095105,0.2635112733474918,0.5381894395325841,0.013229702200146194,-0.8415323868832485,-1.1093067584306917,0.1506637788749353
284,314.786,-0.047623692722059956,0.06248369793976305,0.08854680228931432,0.20431538277266936,0.46262340722188444,0.02492136253611143,-1.1705679251342698,-1.4592235181448605,0.24674207449699118
285,314.793,-0.04650499986942568,0.06533314330919034,0.0887887334116808,0.11531114655117987,0.35150384118532885,0.04420181528283275,-1.422548151971598,-1.7782171408970349,0.314989075770795
286,314.8,-0.04605822388446389,0.06733734338012537,0.08917761821546857,0.012339134866382717,0.22112475050998712,0.06690812865645263,-1.5775155565388395,-2.0203449332421197,0.34655366377266805
287,314.807,-0.046356794991612486,0.06838545394526259,0.0897284442006861,-0.09764516548020483,0.07833541095757482,0.09047072426272562,-1.6268494216431364,-2.139786626240775,0.339936643642815
288,314.813,-0.04722394706786795,0.0684821732954341,0.09032776365667013,-0.19140552660630897,-0.04609562756691818,0.10930242773289083,-1.5601159242036355,-2.0896916198159894,0.30016313457753196
289,314.82,-0.048910170800574956,0.06769206519839385,0.09115512729040777,-0.2903726827382061,-0.17964954301584737,0.12708718190626808,-1.3232673232232617,-1.8013681770371308,0.21799121326265944
290,314.827,-0.0512010445488951,0.06607495377566266,0.09207771266510091,-0.36416267392422424,-0.28238229204987675,0.1365086394344398,-0.8265855444289488,-1.1917246742119398,0.05650058649027755
291,314.834,-0.053857117213585715,0.06392469988027698,0.09301463154022212,-0.3947152302725518,-0.3319759637741679,0.13118246774285752,-0.06355551432216736,-0.25317450059744895,-0.21167726154761066
292,314.84,-0.05615978744772945,0.061986707551279545,0.09373359937639929,-0.37284151444563485,-0.31402147922801155,0.10847347765065819,0.8070549365516317,0.8634571335128931,-0.5602135843683762
293,314.847,-0.05848721404312888,0.06011978996339718,0.09431530960794976,-0.2921375128108688,-0.21938354588085404,0.05772944564935993,1.5442358897086357,1.8937952949657375,-0.9182010483047005
294,314.854,-0.060110572840138314,0.059122959708175764,0.0944636948173409,-0.17167928633435364,-0.06542509846791816,-0.015333671537634097,1.9652842967079898,2.5917454179419286,-1.2104745278733253
295,314.861,-0.06083441241619024,0.059316072625369684,0.09404426052560784,-0.03513202110890512,0.12060021766614101,-0.10450469752886912,2.0129859943802284,2.8280554645183336,-1.3875009273002064
296,314.867,-0.06071371582430328,0.06051957767106364,0.09316839411236835,0.07536421840436719,0.2805681308965955,-0.18745077354956757,1.74284090242771,2.6093403580337333,-1.4318810233931971
297,314.874,-0.0598238611129431,0.06304253222900996,0.09152221734538538,0.17887998484121764,0.44027602851612335,-0.2828854455880885,1.2730649642699319,2.0437091431987024,-1.3485841868308475
298,314.881,-0.058330606585533115,0.06652468590512074,0.08924121794177843,0.24776416585050837,0.5546250218086107,-0.3688286697330081,0.7338583555415045,1.2878200681989356,-1.1553500719354308
299,314.888,-0.05648012265199943,0.07062163094633098,0.08641498398791107,0.2809455294444531,0.6159307042506204,-0.43866674565708674,0.23287234232812,0.4983055984796042,-0.8793647367193012
300,314.894,-0.05478805521843864,0.07434353215149783,0.08365630742514152,0.2830769484064507,0.6247030307990742,-0.48089210859503917,-0.16042425992188122,-0.20012947824785976,-0.5558981694974269
301,314.901,-0.05287557738524243,0.07860489277094433,0.0801963194004507,0.263345289649218,0.5928285747561968,-0.5076758984587746,-0.41445266418336746,-0.728524796230747,-0.22444082390329723
302,314.908,-0.051145357578485755,0.08254058833318907,0.07662507233247254,0.23100322656662076,0.5316558715986394,-0.5126804066771167,-0.5278252240010822,-1.0537265523807617,0.0786357333826956
303,314.915,-0.04965427698472484,0.08599377842201744,0.07308503469529805,0.19501980022190707,0.4549698680659057,-0.4987589182291569,-0.5205428686325013,-1.1805009079265325,0.32696333745042927
304,314.921,-0.04856761316724803,0.08851873259376472,0.07016605858948043,0.16720147227206394,0.3866815225204771,-0.47423311704795656,-0.4250171323183444,-1.1406568624214635,0.5066818992449295
305,314.928,-0.0474816344138816,0.09097054040481435,0.066981179495581,0.14307817154669594,0.3138349949217738,-0.43573233835123004,-0.27780917797258126,-0.9817084304782159,0.6150286221636193
306,314.935,-0.046527086764334306,0.09295859620963146,0.06408394701437051,0.12964972832376281,0.2541809493112767,-0.3920483705654611,-0.11342514401223866,-0.7562972117705049,0.65769281207416
307,314.942,-0.04562837919073882,0.09458530682655791,0.061496287380517725,0.12712386413190813,0.2105935126673805,-0.34728295339194787,0.039834724920444806,-0.5136118118837086,0.6465363785692514
308,314.948,-0.04484779636335422,0.09577761352421404,0.0595223884270508,0.13307041166418046,0.18684205321986422,-0.31068336443345196,0.16229163941057084,-0.2937131308040898,0.5975034297468035
309,314.955,-0.043867550416328796,0.09703524820505689,0.057482805996817855,0.14699985891431033,0.17248214130640768,-0.27205447277554506,0.24353930912566066,-0.12465929762665498,0.5279396306219788
310,314.962,-0.04277547365980584,0.09822505744374478,0.05569630039417804,0.16502207152059697,0.16746335546131924,-0.23837569940689507,0.2815333305415555,-0.021561767964692422,0.4532829761550823
311,314.969,-0.041552789959282715,0.09939629038130965,0.05412828131441064,0.18431612862861854,0.1671746266998334,-0.20962975195490102,0.2805941793772325,0.013149727986408379,0.3842229859646023
312,314.975,-0.040400147035343704,0.10039946320961846,0.05293314922991193,0.19989817934921686,0.167216316068171,-0.1887476095427663,0.24904814566152278,-0.01173268382632704,0.3255723200109356
313,314.982,-0.038947255262293846,0.10155905848788684,0.05168431254456319,0.21521375580758934,0.16409662057970043,-0.1680628719851897,0.197167329358315,-0.07915886100639533,0.2770723156644715
314,314.989,-0.03740079998084731,0.10267803625401159,0.05056942837621486,0.22663061032326356,0.15561131260116667,-0.15047546183097876,0.1354598606682422,-0.168058456647488,0.23533246372622502
315,314.996,-0.035789321565363,0.1037161532393927,0.04956790311564397,0.23379179410049694,0.14099354036465483,-0.13567461261764094,0.07317943081044838,-0.25782666755762884,0.1958865622358151
316,315.002,-0.03437858284908974,0.10451006762655535,0.0487848088726952,0.2364544446550102,0.12364458868829337,-0.12535680169736882,0.01732550052018086,-0.33187357585810234,0.15482140702391725
317,315.009,-0.03272463263577518,0.10529010585035455,0.047939114469699784,0.2361027591488127,0.09922347525417705,-0.11627017058686247,-0.027571769449857262,-0.37962943293400336,0.10991530911112114
318,315.016,-0.031082321764967138,0.10589136535061588,0.04714579116910999,0.23312891822457837,0.07256495339179676,-0.1103936295814878,-0.059070339271767136,-0.3970599086967483,0.06129623772904697
319,315.023,-0.02946668862307241,0.10630524910218164,0.04638178468982257,0.22848055088787125,0.045687547055479824,-0.1078939359290466,-0.07635867607434436,-0.3860065771294944,0.011531709267252412
320,315.029,-0.02810960510013813,0.10651417587605423,0.04573235540012026,0.22388062342568107,0.023954710902376393,-0.1085824939727408,-0.07999534431698131,-0.3527042688510581,-0.034936169291740794
321,315.036,-0.026560661994141574,0.10660274336358838,0.04495931706045211,0.21867454971587527,0.0013502855359359064,-0.11228560307514471,-0.07168230619282814,-0.30586998918301167,-0.0729529847123937
322,315.043,-0.025045031055897317,0.10654485111592926,0.04415277258855964,0.21436286121074563,-0.0178909277242443,-0.11815567460825273,-0.05393765592111817,-0.254717928495778,-0.0980700756774971
323,315.05,-0.023554543770652147,0.10636412379744586,0.04330096710263184,0.21149064885899901,-0.033745448985259746,-0.12521732137094263,-0.029743529855721654,-0.20719956804276948,-0.10766922987201284
324,315.056,-0.022288420877199396,0.10612846220448066,0.042531204558674575,0.21055031562723406,-0.0448084153368439,-0.13137019328268593,-0.002218904878850579,-0.16883663703698543,-0.10147021162167441
325,315.063,-0.020811759199818307,0.10577741229452593,0.04158962469244043,0.21135302076706186,-0.05549155893586508,-0.13765262564116268,0.025605517602351455,-0.14241406963402875,-0.081566877888935
326,315.07,-0.019323105307503325,0.10535644333763675,0.04060998772303034,0.2139766627512009,-0.06478528588953021,-0.14224365133295036,0.05083363291976985,-0.12835633189841494,-0.05219150302851545
327,315.077,-0.0178106634301987,0.1048724680275559,0.03960571971263975,0.21814958790695466,-0.07349337413346992,-0.14469006592129763,0.0707434938477308,-0.12535163285534137,-0.01908417181153143
328,315.083,-0.016488191411775883,0.1044088839378716,0.03873692008957157,0.22267441823187983,-0.08103465576055938,-0.1449098084333793,0.08305793426154756,-0.13098060520262458,0.011615005069894184
329,315.09,-0.014909119049890769,0.10380882000609509,0.0377281052396876,0.22848911373863687,-0.09041218189113973,-0.14332300582131974,0.0863517595045656,-0.14223126431302616,0.03461609065367257
330,315.097,-0.013289683198456742,0.1031401344813018,0.036734580883146205,0.23420684381361165,-0.10064082519252184,-0.14054109604744822,0.08023287074912332,-0.1557776902921157,0.046434152187942626
331,315.104,-0.011632769560638313,0.10239673458726088,0.0357618797769924,0.23919705270560115,-0.11175914453330102,-0.13737350571058454,0.06515561248815345,-0.168151752360756,0.045852797028337534
332,315.11,-0.010188116431733603,0.10169579460311834,0.03494467642295978,0.2423539902603364,-0.12188751684642928,-0.13502761229898816,0.04215040110874909,-0.17611709626338842,0.0338853878287133
333,315.117,-0.008485039652328,0.1008001259655851,0.03400515787949778,0.2442393752837736,-0.134017808162886,-0.13340625726139005,0.012779818208487672,-0.17729589583739602,0.013352384137887927
334,315.124,-0.006776313073313169,0.09982018917451389,0.03307150900350311,0.24396821872011512,-0.14596413214297366,-0.13335056445118093,-0.020679896614708308,-0.17075725410470927,-0.011729788094559662
335,315.131,-0.005077634045214802,0.09875903737970575,0.03213221987329709,0.2413686464544412,-0.15722209494731523,-0.13501775846681296,-0.055057988703437664,-0.15724066580313598,-0.03684349098922207
336,315.137,-0.003641910722141393,0.0977895675916319,0.03131376620915954,0.2372057945677432,-0.16593450107575813,-0.13780012957773471,-0.08643959666561038,-0.13889872696949956,-0.0577308067546032
337,315.144,-0.002005173428434052,0.09659708608677015,0.030333687948280917,0.23043343220544868,-0.1747745003130716,-0.14222223067309916,-0.11087148050548419,-0.11865243145891802,-0.07110599845589305
338,315.151,-0.0004205213417504828,0.09534746984535755,0.029320569338131448,0.22232430684667612,-0.18225871151884127,-0.14724022936939965,-0.1253858509632282,-0.0993981830516236,-0.07509213375313716
339,315.158,0.0011052221971219296,0.09404969892083953,0.028272549351521042,0.21360241854513023,-0.188532981200329,-0.1521940525190735,-0.12872417500427166,-0.08340108891421423,-0.06923626001669693
340,315.164,0.002364765335155043,0.0929047742482256,0.027348489384538592,0.2062452941345472,-0.19310857633944165,-0.15582593647652396,-0.12134845974247697,-0.07212586266572263,-0.05421343848610534
341,315.171,0.0037813016442045317,0.09153636893955891,0.026247409758182516,0.1984793655935889,-0.1978643689936212,-0.1587682424821305,-0.10490991860145289,-0.06643296233498497,-0.03150990829838548
342,315.178,0.005148251227744929,0.0901353152579546,0.025131866167469277,0.1920776582748171,-0.20243668289303876,-0.15995849772142473,-0.0816022169324439,-0.06678025520950365,-0.0031678792755971217
343,315.185,0.006476550106565726,0.08870144204385373,0.02401521378695761,0.1874363071022823,-0.20724137827834485,-0.1590850395673944,-0.05362238423196968,-0.07320333858516324,0.02861586330479305
344,315.191,0.00759441525911159,0.0874440131947629,0.023068693859333425,0.18518541041475664,-0.2119015714205682,-0.15642160297548388,-0.022886810635330348,-0.08519914484003847,0.06191578586262653
345,315.198,0.008889016452609064,0.08593825863713443,0.02199258545432345,0.18470064486997162,-0.21831401647297347,-0.15103794131286113,0.008763288192186974,-0.10162583186747766,0.0949358450676646
346,315.205,0.010187651036508913,0.08438337324455855,0.020961774332196363,0.18633780767257724,-0.2259389528341018,-0.1434795221518096,0.038935039039245674,-0.12052477471429211,0.12527679958952948
347,315.212,0.01150441348721333,0.0827706290908524,0.01999043180511988,0.18988003538555884,-0.2348450910816148,-0.13404691415555875,0.06426687607459702,-0.1389533271715749,0.14953986625148108
348,315.218,0.012656506250320488,0.08133576986094573,0.019213818367531676,0.19415088564832683,-0.24344131888498943,-0.12482423170593956,0.08090163246289572,-0.1532371015454549,0.16394409444781147
349,315.225,0.014035588085981118,0.07959407114495888,0.01837963824070415,0.19987249596871426,-0.254186885682329,-0.11351294738746859,0.08579604776672531,-0.15983228933673474,0.16560733438474878
350,315.232,0.015454372282852102,0.07777677590151624,0.01762340854612061,0.20549441742270566,-0.2650403267294804,-0.10255267963624551,0.07799722236811409,-0.15637999073105244,0.15371731488648932
351,315.239,0.01690929457026336,0.07588560525427787,0.0169396322115571,0.21019766469787454,-0.2752941439140574,-0.09281198738334663,0.05903070620815738,-0.14236239864329733,0.13007530842731227
352,315.245,0.01817854107442266,0.07421075744822941,0.016402960631376737,0.21288450335320505,-0.28298845809942796,-0.08607853934258682,0.03229639174128462,-0.11917149877440306,0.09879822945183644
353,315.252,0.019672844479234553,0.072204743613997,0.015820115704730735,0.21405932659274543,-0.29015835168085496,-0.08044858255615202,0.0019317883941932265,-0.08972155066280509,0.0652291480764086
354,315.259,0.02116808789318365,0.0701559157981808,0.015268954537001615,0.21315307739240555,-0.29522102426621266,-0.07702603679491257,-0.028335131325170453,-0.05777814408817963,0.034485863420513005
355,315.266,0.022650033135372224,0.0680791623294818,0.014735148782183852,0.21025984894688393,-0.29813710964736434,-0.07548989315291028,-0.05595835306755018,-0.027181271385710398,0.010269295928389193
356,315.272,0.023899610596325695,0.06628784108722603,0.01428261376076889,0.2062659713728968,-0.2989699711073662,-0.07535511398611956,-0.07979570409454284,-0.0011281397453676398,-0.005688079210095705
357,315.279,0.025321889518906335,0.06419712178624497,0.013752820250760562,0.20009943507842434,-0.29837840060108256,-0.07601446030186586,-0.09986478268791164,0.01836339792755445,-0.013521810165141
358,315.286,0.026696545384476234,0.06211436408397851,0.013217331708166469,0.19265938365555155,-0.29669522861747955,-0.07698226615347992,-0.11689924763458774,0.03067539524127317,-0.014674970346432328
359,315.293,0.028015279652655694,0.06004555249383614,0.012675351849110169,0.18412183582402447,-0.29439379713706065,-0.07786912214820937,-0.13184006501902598,0.03637623314842039,-0.01116335640790044
360,315.299,0.029095557232500006,0.05828563837861868,0.012206715155397651,0.17597069079243793,-0.2922442412715155,-0.07834310909003081,-0.1452217597503849,0.03668833241186246,-0.004947715902679859
361,315.306,0.03029107988625054,0.056248308003635755,0.01165800756551585,0.16560721027889952,-0.28985015158033334,-0.0784304880189435,-0.15671564317899758,0.03306286968585188,0.0024019527459696963
362,315.313,0.031411639694261334,0.05422659085652777,0.011110445569514822,0.15455273486681279,-0.2877833190215351,-0.07801579655266642,-0.16535372263993542,0.027153778020312127,0.009679979012488245
363,315.32,0.03245319015341134,0.052217866491251076,0.010567400008911685,0.14303311060440443,-0.2861379281999681,-0.07714007790526226,-0.17026763815387344,0.020784270477851943,0.015833863923640223
364,315.326,0.0332812712554422,0.050504231797010045,0.010107706217509291,0.13299392340456548,-0.2850736365443157,-0.07609118589480386,-0.17096976027103997,0.015391578075503266,0.01981854236710417
365,315.333,0.03417163296020836,0.048511939706503575,0.009579918199337397,0.12139513509986921,-0.28415267502855435,-0.07470539072562948,-0.16695802502007762,0.011440404471638238,0.020556251972112652
366,315.34,0.034982411840307044,0.046525281415527524,0.009061508730247289,0.11025597350147043,-0.2834639795402362,-0.07341160044406986,-0.15757865157856527,0.008624565678303827,0.017138003065298908
367,315.347,0.03571814420783874,0.044542860351358994,0.00855080732065171,0.09995327436457896,-0.2829420387932242,-0.07250308801170544,-0.14258790120184706,0.0065820469485983815,0.009331278562511073
368,315.353,0.036294433109979145,0.04284625230433428,0.008116424863791634,0.09214302634797164,-0.28259397687898,-0.07229106427429512,-0.12288664979399151,0.005248765620509822,-0.002124477143429385
369,315.36,0.03691256077435389,0.04086928848196172,0.0076082238809807076,0.08446487775897298,-0.28225282951277736,-0.07290921652872316,-0.10081428168743539,0.004690477246098815,-0.015885233597390178
370,315.367,0.037482129886471593,0.03889466475315398,0.007092260624304959,0.07826915427454093,-0.2819253787176017,-0.07450885680709961,-0.07969656654682032,0.004849719462269319,-0.03071988431094745
371,315.374,0.038012894828599195,0.03692242613661244,0.006561483264524168,0.07337797204752253,-0.2815713688652936,-0.07714181741587518,-0.0628067996679394,0.005464268707794582,-0.04599076200044583
372,315.38,0.03844300277648472,0.035234026947868154,0.006089133990017537,0.0699913439149938,-0.28122836071877877,-0.08030794075374176,-0.05230652080149169,0.006194763565083715,-0.06162748133040477
373,315.387,0.038920807796767355,0.033267007150151996,0.00551023868598852,0.06652437616566224,-0.2807772957711507,-0.08509071754014493,-0.04870271416600728,0.0069469004406892436,-0.07771751958806078
374,315.394,0.039374493062284154,0.03130338258644094,0.0048939668155628755,0.0630999854104741,-0.28025829386017803,-0.09098695972419912,-0.05106605076640956,0.008174089936024614,-0.09406801614680103
375,315.401,0.03980311598286528,0.029343853654428986,0.004232543581138977,0.05936370618404667,-0.27960711528569476,-0.0979911072539225,-0.05778950647353197,0.010797834348089405,-0.10999606368585998
376,315.407,0.040148267016761524,0.027668543576964875,0.0036239155415953898,0.05568663844857551,-0.2788295772049658,-0.10488490592822665,-0.06719601306298795,0.015631105222936675,-0.1243278788883639
377,315.414,0.040520678561363016,0.02572134472841717,0.002858508645087444,0.0507166600089166,-0.27751295095112416,-0.11380277878817298,-0.07760306102464956,0.022728470133456646,-0.1354921079846824
378,315.421,0.04085588917337186,0.02378523906409067,0.0020285869856263325,0.04505780056496977,-0.2756600959989089,-0.12331769534340373,-0.08726638817397116,0.031253993725656994,-0.1417225970580022
379,315.428,0.04114944466189044,0.021864166263258714,0.0011313480259570047,0.038815196154565704,-0.2732178470955434,-0.13303629313336388,-0.0946103240686573,0.039900314928273714,-0.1414263096227616
380,315.434,0.04136529347704689,0.020232563893304936,0.00030885593555697187,0.03313440889724182,-0.2706496095531191,-0.14112773699867126,-0.09848270488947343,0.04739546709759829,-0.1336062402377499
381,315.441,0.041573613502925946,0.01835005155559991,-0.0007092828374830809,0.026385598497215303,-0.267211058366586,-0.14976905530064102,-0.09814219177544267,0.05278585844778099,-0.11815639902187124
382,315.448,0.04173532565336997,0.016492585013843885,-0.0017833872764335458,0.019817873058187087,-0.2634936678490413,-0.15711792725641532,-0.09320684001198218,0.055519381001019406,-0.09595114041802931
383,315.455,0.041852789209006286,0.014661462322115813,-0.0029029937318506725,0.013743142837879013,-0.2596842440728911,-0.1627696314339637,-0.0837788998483235,0.05546722433158736,-0.06870984189045735
384,315.461,0.04192163187745271,0.013112923816539893,-0.0038890865937204243,0.009204413310820073,-0.2564952577832842,-0.1659279891877175,-0.0704949696530614,0.052928143083777676,-0.03864444503860694
385,315.468,0.04197106674240217,0.011329644971220998,-0.005056185835832147,0.004919833817586408,-0.2530129837360361,-0.16752893712967923,-0.05433517820522437,0.04852703703075449,-0.007998771319988612
386,315.475,0.04199459683487832,0.009569549150134136,-0.00622728596978033,0.001803049747024691,-0.24987153657413655,-0.16707110114099105,-0.03647154319765719,0.04299823734639336,0.02133770790712485
387,315.482,0.042000634512456725,0.00783005778515695,-0.007388453061289011,-7.79990103388869e-05,-0.24712599627613305,-0.16469092500410928,-0.018332340096178658,0.03699238994664738,0.04800812627915488
388,315.488,0.04199839841919329,0.006353302996626413,-0.008366079070806382,-0.0006673654108093074,-0.24512559990302557,-0.16118441150321255,-0.0017005423687198205,0.031002163855003734,0.0711801626510849
389,315.495,0.04199488044458531,0.0046442043611272625,-0.009474951263745052,-0.0003377701914705994,-0.24318829595352578,-0.15563621505046665,0.0113032163367043,0.025440700338416024,0.09046514808170311
390,315.502,0.041996083373240234,0.002947447717322414,-0.010540824922356144,0.0006814640928777789,-0.24159931656179884,-0.1488991159810562,0.018391918651074403,0.02085381531388736,0.10581854190433757
391,315.509,0.04200516656161079,0.0012609279435363916,-0.011556300454990055,0.001913732584421877,-0.2402634759481489,-0.14123675048556794,0.017509914479453423,0.018065565591605874,0.117422553110133
392,315.515,0.04201884479233138,-0.00017746580449198835,-0.012382274474749357,0.002645677655795869,-0.23920110673023073,-0.13408792276882678,0.007369294063641699,0.0180449382645584,0.12556996444257343
393,315.522,0.04203678849316037,-0.0018471119773296157,-0.013290115271391796,0.0024810940096271004,-0.2378406569373219,-0.12529516198597052,-0.012164397274761585,0.02159142490031619,0.13060491347481612
394,315.529,0.04204789224395025,-0.0035059035168776486,-0.014135517817803707,0.0006914062160513603,-0.23609978293320588,-0.11624842270297403,-0.03997770727599767,0.029128502149616382,0.13296956428087642
395,315.536,0.04203905784095386,-0.005150217827688905,-0.014917261599159633,-0.0032155213578754626,-0.2337043058696744,-0.10710694339855922,-0.07384964672574114,0.040663120693185735,0.1333651402136181
396,315.542,0.04200345815216392,-0.006543949955555876,-0.015536402856294615,-0.008651041572160165,-0.23087307008816568,-0.09927347564740437,-0.11090662289097286,0.05557211361285529,0.13289866211071175
397,315.549,0.041911799287235686,-0.008144741134278911,-0.016199359869067266,-0.017537205550173428,-0.22649583811808904,-0.090142813716075,-0.14798953366771542,0.07195744089712394,0.13312088093472474
398,315.556,0.04174950108640763,-0.00971113291115055,-0.016797994503911683,-0.02883370897209357,-0.22104466955920213,-0.0808956533822078,-0.1811312574546955,0.08686098650769151,0.1362928138208188
399,315.563,0.04150119709954671,-0.011236097419881933,-0.01733046830728908,-0.04211028727383484,-0.2146594757923102,-0.07123971901122605,-0.2056785181780723,0.09917003083804166,0.1450304098801495
400,315.569,0.04121109022182611,-0.01250536877642766,-0.01773101137339159,-0.054592005299236177,-0.2084309763875783,-0.062274636355638964,-0.2185818230305886,0.11254003001189752,0.159697594604708
401,315.576,0.0407762589096409,-0.013934846118420044,-0.018126535062527527,-0.0696455124678786,-0.19999112132423968,-0.050732131968833964,-0.21999832902750227,0.13335302836707602,0.17659037286916368
402,315.583,0.040236754236215505,-0.015298903527081804,-0.018437505276473153,-0.0844986799392665,-0.18973956686455648,-0.03811650058699605,-0.21274497624792038,0.16532343708314323,0.1909628801880958
403,315.59,0.039595469597794475,-0.016582393391649096,-0.018657236467467486,-0.09872550246809886,-0.1769718230145288,-0.024663839697563906,-0.20174992637829228,0.20666157454882478,0.2009770174333221
404,315.596,0.038968288043883796,-0.017603796066965625,-0.018769166605783462,-0.11033501550112897,-0.16349573542268894,-0.012646206407583462,-0.19286369577180248,0.2513979256126479,0.2075088328119388
405,315.603,0.03814999969972573,-0.01868297958202156,-0.018807336055207406,-0.12346165425815026,-0.14484241173592882,0.001740649429321636,-0.18957762886904006,0.2920619769388075,0.21164860006399797
406,315.61,0.03724019288315719,-0.019623241184864266,-0.018744155150383007,-0.1364831504755334,-0.12380376050465315,0.01631103766335125,-0.18980039427629908,0.32089384476703603,0.21285600312492278
407,315.617,0.03623974160439563,-0.0204117706158925,-0.01857940000408741,-0.14936007202756652,-0.10149036264610997,0.030761861278214033,-0.18536548229066396,0.3292013998891701,0.2081651149022019
408,315.623,0.035312734098071404,-0.020964592735242486,-0.018359470309255804,-0.15964243008196,-0.0827836771380844,0.042548036999332406,-0.1641374249012856,0.30664895023424854,0.1924533674940549
409,315.63,0.03416195636781995,-0.021478101211943535,-0.018019315542029703,-0.16915120713250653,-0.0639330304906825,0.05463903935091234,-0.11289840721379509,0.24255990723603776,0.15981495047884534
410,315.637,0.03296189966278105,-0.021880915051225684,-0.017604959778848038,-0.17372213716407695,-0.05115663787556406,0.06374832155804983,-0.02027449168839714,0.12967708399248903,0.10558169966980692
411,315.644,0.031757771367719026,-0.02222722078558185,-0.017142632738076508,-0.17031451856768295,-0.047787857654698146,0.06834511866229355,0.11955460398512743,-0.03152851801609252,0.028344829900591995
412,315.65,0.030773124251197482,-0.022537099837679844,-0.016736102784346382,-0.15790118694104083,-0.05550515971178534,0.06716486591505212,0.30238124657547755,-0.23078674958713097,-0.06846225862657455
413,315.657,0.029765553308016727,-0.023007331669160757,-0.016295318807916327,-0.12997622539611214,-0.07884679213980798,0.0587734130648733,0.5112054972567684,-0.4492658511045563,-0.1760206134237421
414,315.664,0.029003404917832605,-0.02369284707076496,-0.015938830429092235,-0.08778045751348107,-0.11701475117553853,0.043080409456222934,0.7181576064272747,-0.6627480530378448,-0.2811911068634144
415,315.671,0.028582282198682682,-0.02469311254310039,-0.015715376128984767,-0.032540319386410936,-0.16877538377723797,0.020763676288722128,0.8912499494376788,-0.845284982902416,-0.3690013111819166
416,315.677,0.028554178638688428,-0.02586617725395879,-0.015660869904806644,0.023172466055037796,-0.22224618650702785,-0.0025949348961012905,1.0024577367134775,-0.9722164992392791,-0.42497050674135944
417,315.684,0.028960753878504247,-0.02766128120901316,-0.015782319890871477,0.09299188817797065,-0.2906406577938544,-0.032105061122398,1.0317135981280539,-1.0204392507373095,-0.4347996121145954
418,315.691,0.029851532793931934,-0.02993458015706952,-0.01610532394647144,0.16151637337468186,-0.3588733273699157,-0.06018181190684614,0.9647300744882308,-0.9675024470338558,-0.38320947310982095
419,315.698,0.03119293112754052,-0.0326585217401153,-0.016603849846374794,0.22174029337035453,-0.41939569635689267,-0.0822541594940097,0.7898787149011743,-0.7958015787892547,-0.2598628324072893
420,315.704,0.03263734069209462,-0.03528943335965612,-0.01712692136037371,0.25972956147871207,-0.45757484348586,-0.09210301183813,0.5013970387345776,-0.5019282653738055,-0.07490498140861684
421,315.711,0.034528912049710724,-0.03856520279440632,-0.017765011534814436,0.2807193978397895,-0.4783592807278134,-0.09020846657337576,0.1101365739833934,-0.10362109557553852,0.13010208205687582
422,315.718,0.03646562092676329,-0.04188302732128007,-0.018345567116969528,0.2726259956034052,-0.4695905840925804,-0.07566455689938864,-0.3459358162287358,0.359094870593415,0.29363107493285573
423,315.725,0.038235986645738816,-0.045027765485883706,-0.01879636618453424,0.23319278124638454,-0.428906034364959,-0.05313517669043734,-0.8029409840472435,0.8262392715475185,0.3627567612784382
424,315.731,0.03945953345733976,-0.047420243017800394,-0.019055344375625175,0.1746561559558481,-0.36858647627768515,-0.03319088700694602,-1.1867505446879012,1.224055106504018,0.31516042361089835
425,315.738,0.04036724019430419,-0.049675507717538696,-0.019230254038554846,0.084688626033803,-0.2757748665042268,-0.01678330240149588,-1.4344308525412621,1.4799878431676565,0.16287043461689077
426,315.745,0.04060622911672503,-0.05124242370073354,-0.019334949814423703,-0.016406076770752717,-0.17191541440826758,-0.013129776418156582,-1.5109379330563675,1.545931218923154,-0.05642587233847507
427,315.752,0.04013983075412221,-0.052089936050093266,-0.019468822907963975,-0.11685059825852938,-0.07023097112290944,-0.025119678879036975,-1.4154879831099916,1.41661950752371,-0.29289692570080955
428,315.758,0.03920983069826055,-0.052286530852194264,-0.019689356165196688,-0.19314942036348104,0.004699370422268423,-0.048391406865545716,-1.1779502146201273,1.1303032964079747,-0.49812168536474644
429,315.765,0.03761432124637626,-0.05202731603809926,-0.020164219002825137,-0.2627104230317038,0.06936200503339475,-0.08728368959962851,-0.8486921342866429,0.7536263289287722,-0.6349952078820372
430,315.772,0.03561503958295872,-0.05140783770404297,-0.020933507835008015,-0.3085129093729002,0.10763180469684727,-0.13251311959532253,-0.4857518061929215,0.3613546763344251,-0.6827528798415754
431,315.779,0.03337991892032807,-0.05060873299784554,-0.02201972269553356,-0.3300929942353996,0.12068382564511154,-0.17783398341175383,-0.14297854842749214,0.01891267718166407,-0.6376591092940455
432,315.785,0.031399043926272095,-0.04990311758395506,-0.02318806461716916,-0.33019867044677315,0.11452131231725819,-0.21161332379825365,0.13938655689205331,-0.22837983561748496,-0.5105189258942718
433,315.792,0.029145447831179616,-0.04917192698792751,-0.024769499090046578,-0.31368592815584667,0.0943902865493039,-0.2402250970272115,0.341708044105339,-0.3581325460857,-0.3230779039295068
434,315.799,0.027046849319849027,-0.04859844023538578,-0.026502441835416994,-0.28591364650960727,0.06946307131964376,-0.2549014016496969,0.46743040921007334,-0.36811561145877475,-0.10451254664593754
435,315.806,0.025166186447395003,-0.04818914678808992,-0.028285719434098022,-0.2514186027625872,0.047477913621946206,-0.25460648368737515,0.5375740301097586,-0.2724164385184445,0.11310490743672795
436,315.812,0.023756099184731812,-0.04793710101382728,-0.0297768093200996,-0.21861048478956502,0.036537344465199115,-0.24242347831077785,0.57759163036436,-0.09945941975782209,0.3010020294050798
437,315.819,0.022367629006858604,-0.04768027876794516,-0.031384802428039205,-0.17809528031678304,0.03684044007249888,-0.2170031239573529,0.6028086802922729,0.10829003418198604,0.4396136127038612
438,315.826,0.021266736635793936,-0.0473738189556548,-0.032788348315062915,-0.13644539713004034,0.05071950629611237,-0.18400998662056417,0.6106502098256704,0.29607307579523995,0.5216331604191918
439,315.833,0.020455131509004902,-0.04693460049959744,-0.033947528506734506,-0.09544178195237502,0.07477148114875956,-0.14718435385679618,0.5839798240984241,0.4046751731008811,0.5512724047910532
440,315.839,0.01997836812605582,-0.04641621969467946,-0.034734260148171416,-0.06347934569806606,0.09802212049137804,-0.11505952662340588,0.5024406577330935,0.3856266235618506,0.5406678341808436
441,315.846,0.01963691977668356,-0.04565757815202609,-0.03541404669914385,-0.03407732555108113,0.11873260598085908,-0.0791652022257231,0.35417981764298634,0.2177681716453735,0.505104295595733
442,315.853,0.01945808805501275,-0.0448103695792409,-0.035852438556572636,-0.017017452069114352,0.12332698624330686,-0.04608961418241116,0.1428553132399084,-0.08391205615393206,0.4585446581619811
443,315.86,0.019342792316815786,-0.044013649965307766,-0.03607060539390818,-0.01592418741570885,0.10430718916599702,-0.01624376791341517,-0.11100332203555151,-0.47022495662518804,0.4110065798528838
444,315.866,0.01920490210546548,-0.043505906078269964,-0.0360992630314098,-0.030039216367942514,0.06494077318073316,0.006691222079499577,-0.36877414027488725,-0.8678607976146675,0.3685661248261696
445,315.873,0.018882530402794945,-0.043298899201151084,-0.03596839773309717,-0.06206698439500198,-0.00579595114681053,0.030698863152652564,-0.5643468403726931,-1.1930359066623324,0.3308904705347286
446,315.88,0.018307300784992,-0.04364625397177158,-0.03567957007579726,-0.1022843349771506,-0.0934482690304032,0.051823324647263955,-0.6073755719588773,-1.360692369078547,0.28456541165006577
447,315.887,0.0174657950465314,-0.04461959705479389,-0.03525751096680991,-0.1381458760114206,-0.18464975469005776,0.06876499220617874,-0.43744142275518705,-1.2964400187716625,0.20902581934122758
448,315.893,0.016589937181443484,-0.04592758306487559,-0.034817849529678056,-0.15380674568592356,-0.2513455820058921,0.07778882017179423,-0.09488000112814975,-0.970587196303404,0.09769896998227182
449,315.9,0.015535955479273595,-0.047855735933820524,-0.034265815034038395,-0.14733088350525797,-0.29955523769226666,0.07993532143942544,0.2835526199461662,-0.43398901870929885,-0.03516119444571009
450,315.907,0.01460477426185245,-0.049982026066693705,-0.033730746216918385,-0.11872089290059355,-0.3079562288424935,0.07294148345189778,0.5499922735595955,0.18922825068174676,-0.16860251946336938
451,315.914,0.013914674584051897,-0.05202460315736438,-0.03327479434563689,-0.07845044361370934,-0.2756372256344254,0.05733047977129248,0.6232771562036027,0.7523777938476587,-0.2862201535069155
452,315.92,0.013543787125753945,-0.05351125361447399,-0.03298943536117813,-0.04517870915168461,-0.2199129267330777,0.03778918171450828,0.5076470792851004,1.1417212410277113,-0.3779991281944775
453,315.927,0.013320863524876768,-0.054756526326651296,-0.03282313667946836,-0.018513748241749155,-0.13587927674589842,0.009724727345390888,0.26922986237959784,1.3065780540459446,-0.43965170404974563
454,315.934,0.013223263083556881,-0.05539954003005159,-0.03286432719888113,-0.009372092135341549,-0.04783892422548268,-0.021493447177602893,-0.0028900068034304798,1.2584555134196553,-0.4698819731116406
455,315.941,0.013129334462438944,-0.05545698439415119,-0.03312729375386302,-0.01746465675569647,0.03142624876833289,-0.05363985424635133,-0.23288483171110094,1.0509154016344182,-0.4666955262378974
456,315.947,0.012970540634354192,-0.05510899149981479,-0.03352793371121533,-0.035466619272301804,0.08457138267657992,-0.07990679820378196,-0.37901160307275755,0.7555164212610412,-0.42613209438366095
457,315.954,0.012624254610170261,-0.0543729907931507,-0.034179909556314156,-0.06347224478017886,0.1257145335130094,-0.10637201468146319,-0.4369252650686726,0.4431789490496327,-0.3449253433947072
458,315.961,0.012075814823027022,-0.05341904778886615,-0.034993081785852524,-0.09322483726063474,0.14684061056809686,-0.1259629080436191,-0.4299090472291668,0.17232400208403262,-0.22585041626522906
459,315.968,0.011324469613660106,-0.052372711652712574,-0.03591170621606277,-0.12144522255833082,0.15211257118985438,-0.13650121487340675,-0.3922847934715215,-0.01872675293593259,-0.08118050749656551
460,315.974,0.0105300271256403,-0.051471941779540696,-0.036731800481426345,-0.14336894011618254,0.1481440532021829,-0.13686354024906763,-0.35291421461498956,-0.11616531818213918,0.06886487216535021
461,315.981,0.009445168013760497,-0.05046461505413667,-0.03765743772585582,-0.16659080613496804,0.1396635826273331,-0.1276042438734506,-0.32364902181186384,-0.13091106292787277,0.2009024031197276
462,315.988,0.008204590578204942,-0.049513918215349784,-0.0384912457347685,-0.18785988973779438,0.13196408559729836,-0.1106266158157175,-0.2960203891872654,-0.09341185002344815,0.29373652797647337
463,315.995,0.006824304705512225,-0.04860661055287873,-0.03919033519104638,-0.20650750245984276,0.12726667510853185,-0.08911322883496203,-0.24727312584109487,-0.04344602524524812,0.3330506006043541
464,316.001,0.005550018437223324,-0.047848448835652944,-0.03966786239755315,-0.21825458697178704,0.12545389730125006,-0.07006250666804227,-0.1520166252291645,-0.0181712721087688,0.31449374148355835
465,316.008,0.0040046987166728505,-0.04697764275072842,-0.040091121555610607,-0.22326533318517555,0.12334784124843809,-0.050868681348287134,0.0060297922889826425,-0.04318814224812091,0.2447135404480588
466,316.015,0.002469714912145214,-0.04613491360054825,-0.04040096291084719,-0.21530146810812137,0.11743191594572425,-0.03765742014781665,0.22599541734059084,-0.12917085620728896,0.14019323783755194
467,316.022,0.0010484204881442381,-0.045361172556157986,-0.04064490002257101,-0.19078265303472441,0.1036369538799068,-0.03203889748751159,0.48835410418319825,-0.2727419002475537,0.02350100929652974
468,316.028,1.3945242603873639e-05,-0.04480396516831757,-0.040842315933727204,-0.15404242881041733,0.08209884206601127,-0.0337664062309045,0.7604659728098511,-0.45935016020097497,-0.08221996508621202
469,316.035,-0.0008521993069935935,-0.04436459375831617,-0.041107559313623775,-0.09342744250296789,0.04343584650572848,-0.0420174165966322,1.0055364353929241,-0.6670865088014779,-0.15817115043880114
470,316.042,-0.0012423255155981098,-0.044245170140874375,-0.041443820990244504,-0.018037188527719406,-0.009314812950677674,-0.05405734815285924,1.1909396868829023,-0.8697907110091847,-0.19260923273606217
471,316.049,-0.001070186277788577,-0.04453943606121253,-0.04186699147077816,0.06721982790183653,-0.07476116428873589,-0.06684850342809869,1.293002082353717,-1.0369723044085297,-0.18005786488880918
472,316.055,-0.00043853065316506264,-0.04517939013431276,-0.04229427579229454,0.1433320469716629,-0.13855686007699047,-0.07557960374334996,1.2940933773415904,-1.1314778726974808,-0.11671695339638782
473,316.062,0.0008614163960791729,-0.04641869362053894,-0.042837408954976765,0.22808139566928182,-0.21552985027309157,-0.07960129988003141,1.1750576199789846,-1.1111108719967864,-0.00045415386766488905
474,316.069,0.0027094308100128854,-0.0481736410109582,-0.043375982757720914,0.29992272259711594,-0.2858836898463395,-0.07427692947532968,0.918021403738385,-0.938630581090008,0.15557834888395997
475,316.076,0.004982228630566476,-0.05035945829427638,-0.04383995562281795,0.3494480832748743,-0.33863553395840706,-0.05828674626658666,0.5248875458802917,-0.5982811533534521,0.31029162444264113
476,316.082,0.007128264899877033,-0.052454092385219336,-0.04412638790781218,0.3658973398320061,-0.35957582969252794,-0.03719068206527362,0.03423157421369548,-0.11349081547108011,0.40677499876413425
477,316.089,0.00963586402885731,-0.05493122967145954,-0.04428944318420884,0.3505595541618471,-0.34817768066130966,-0.009396539762309992,-0.48109410904313854,0.44557302590146963,0.4030003592966501
478,316.096,0.011919719350712454,-0.057197688785929186,-0.04427152445506231,0.30197053779629934,-0.29938206632955494,0.01451617666131574,-0.9345346841158196,0.9760749471348987,0.2936906302318446
479,316.103,0.013770920762594265,-0.059011045943450746,-0.04412147068574581,0.22694415131241108,-0.21871997867623377,0.028356328857651776,-1.2513402501331596,1.373994725798804,0.1095387293303226
480,316.109,0.014899683330599251,-0.060063799812106945,-0.043950488634540076,0.14931003802435244,-0.13219797754414886,0.02863768821119419,-1.3874852165458613,1.5669348520044033,-0.09997517284760479
481,316.116,0.015617467813402964,-0.06061663986243205,-0.04379643060235688,0.05577124277656173,-0.025756322548625088,0.015378892412545928,-1.3377440993549046,1.5342160432830574,-0.28631651402198405
482,316.123,0.015711029939222517,-0.06045559998611919,-0.04377295103705263,-0.029039206828136918,0.07176771578083685,-0.008670445182765647,-1.1331870575535794,1.3071223292758625,-0.41435489904376777
483,316.13,0.015271930206341143,-0.05968179028958805,-0.043939437314947316,-0.09641785970930858,0.14932076894218782,-0.03889706278711168,-0.8298730782033821,0.9523664042816302,-0.46629001623090904
484,316.136,0.014576664318174611,-0.058653294283045186,-0.04425284400200563,-0.13533743634509526,0.19351123323713015,-0.06557183289849511,-0.49302436504859,0.5496913590636963,-0.4403998357659866
485,316.143,0.013548167870235519,-0.05721193188880794,-0.044806536765472894,-0.15851869163967897,0.21830659369084715,-0.09262609952189445,-0.18235568812976705,0.17271524269271016,-0.34781943012864913
486,316.15,0.012423637193816756,-0.05567790570273426,-0.045521793857496426,-0.16277578733688075,0.21998660232989087,-0.11173306962753954,0.058326273768849274,-0.12376861277343496,-0.20885734694555028
487,316.157,0.011316017037347173,-0.0541900812650155,-0.046334873576818945,-0.15368711451134523,0.2051060941608806,-0.12057542160730059,0.20646992722097562,-0.30977125686311985,-0.048762358043403606
488,316.163,0.010435103165672734,-0.05302030540008336,-0.047053165648746155,-0.1399508427120657,0.18481919414796955,-0.11885526903395907,0.2604333747633562,-0.3797914382745055,0.10723127363752623
489,316.17,0.009514836146248136,-0.0518139455313145,-0.047843585068276163,-0.1229825914090601,0.1598550540714574,-0.10697885083159668,0.23393236693796687,-0.34753251541273206,0.23878518902094384
490,316.177,0.008699850449500555,-0.05076533177487495,-0.04852366741450515,-0.1098704648043681,0.13974887633962665,-0.08733039094797465,0.14808614978815038,-0.23825592499152365,0.33366775678938454
491,316.184,0.007951481808649135,-0.049825522659013445,-0.04904832143804028,-0.10394914686731348,0.12876801390632733,-0.06257075863338146,0.024429961714915377,-0.08166874517154998,0.38769791459761166
492,316.19,0.007319419748557728,-0.049051920135958195,-0.049354052552174,-0.1067382064974791,0.12909949377996807,-0.03933961274500575,-0.11923160584343127,0.09293592521918059,0.40194128902050724
493,316.197,0.006525616736502015,-0.04810585707008942,-0.049535502596816626,-0.12006265408970533,0.14120423932520312,-0.012503257152848838,-0.2689728295496572,0.2597327972505256,0.37992919368074235
494,316.204,0.005603252758526957,-0.04703816871240283,-0.04953809933739767,-0.14346991104583734,0.16384957715646345,0.011761331272551214,-0.4129917252929468,0.40003343517467693,0.32701349827923853
495,316.211,0.004484079688229771,-0.0457823961480546,-0.04938630297558801,-0.1762938233245587,0.19494258408563092,0.03160905781589002,-0.5433247182485832,0.5058535155648796,0.25124503163448964
496,316.217,0.003320326331590161,-0.04451704105693973,-0.04916007881217104,-0.2116239622238008,0.22684244628797445,0.043798996656787575,-0.657565796501038,0.5784400404232658,0.16309757740987782
497,316.224,0.0016695084921987211,-0.042784877201432724,-0.04882511466174657,-0.2600382776019878,0.2680615124279605,0.05190504632156365,-0.7529731272512085,0.6224671031974004,0.07307014448642385
498,316.231,-0.00033965448332661224,-0.040756555819453484,-0.048454231371797656,-0.31400828683341153,0.311458882422836,0.0540616079494782,-0.819429542114846,0.6419043763553075,-0.010239262878738808
499,316.238,-0.0027371321907119685,-0.03842247537171979,-0.048086670462556866,-0.3709853438476294,0.3554212455006003,0.05095579469067141,-0.8405827094601324,0.6389280348214493,-0.08024782667797091
500,316.244,-0.005107818884988107,-0.03617933895230167,-0.04779971909490151,-0.4192435542406434,0.39229089430186975,0.044694661193991694,-0.7997399421005805,0.6142912534877913,-0.13257148459379592
501,316.251,-0.008220847128321957,-0.03329120259518788,-0.04752264138776402,-0.47019308671847254,0.4328909220224698,0.0344703979887349,-0.6846618953757813,0.5685803612080886,-0.16530985701281112
502,316.258,-0.01165349687755178,-0.030132209220585564,-0.04732260499186145,-0.5105639844893479,0.4696786135775458,0.022682857983386373,-0.49153407575012653,0.5032197964123508,-0.17811716168922434
503,316.265,-0.015314205742700416,-0.026733539035570787,-0.04720576765269662,-0.5353528341238003,0.5013700107116963,0.010699238920826047,-0.2306828349157323,0.4201011027188619,-0.1710225711175012
504,316.271,-0.018540758356437603,-0.023659982389213626,-0.04716934836501654,-0.54016470378346,0.5231488714024649,0.001440523639143071,0.06712478469346007,0.32017414216308443,-0.1436861650169507
505,316.278,-0.02227168600373335,-0.019935168419823318,-0.04718789301539798,-0.5258146240145635,0.5410836912797201,-0.006738995176695028,0.3509611866739659,0.20235233228442628,-0.09462206215053998
506,316.285,-0.025842676405435833,-0.016115569210856107,-0.04724903442238518,-0.49446834789970234,0.5502303684244179,-0.01072997824820436,0.5623046982055719,0.0641338099817539,-0.021654227670477387
507,316.292,-0.0291576495274531,-0.012267702293109785,-0.04731774653322896,-0.45266682982653145,0.5491601795112447,-0.008902053421592742,0.6555720362692259,-0.09531349528803951,0.07491035857946422
508,316.298,-0.031761557529371855,-0.00900507613149407,-0.04734788386575116,-0.41530250414224196,0.5383818743554677,-0.0011437240857580895,0.6144615866332964,-0.2710469219025261,0.18879944839837248
509,316.305,-0.03454023087559752,-0.0053231639258170295,-0.047296214468298126,-0.37860416620738224,0.5135930415515063,0.01590640907232907,0.4547352756950649,-0.45116949841120074,0.30795190059367383
510,316.312,-0.03711004823251546,-0.0018567541538776849,-0.04709764110006906,-0.35562936434007403,0.4768097504304558,0.040828838993078695,0.2146298087058788,-0.6205024536686704,0.4181568381770822
511,316.319,-0.03958075272270105,0.0013143752240067567,-0.046700725426131476,-0.3502862042838753,0.42922721467873715,0.07257563927472166,-0.05895818191050684,-0.76580277949118,0.5067782177469305
512,316.325,-0.041716064427973765,0.003744625170943458,-0.046170707067223614,-0.3614843641437077,0.3808561009706365,0.10409714702872852,-0.32167332357760614,-0.878357516781517,0.5646548660671136
513,316.332,-0.04434972946768351,0.006190545617543772,-0.045303724093548416,-0.39099136148711056,0.3179783123432397,0.1436122740211511,-0.5380056360607662,-0.9535710689187653,0.586608438276494
514,316.339,-0.047233437603894854,0.008182963062404104,-0.04415931479771463,-0.4329252488583988,0.2512838147593056,0.18336181050255387,-0.6837276446724466,-0.9895563740156992,0.5714843276782229
515,316.346,-0.050435701531541484,0.009704597231734207,-0.04274441937690937,-0.4820073018971282,0.1834688050489846,0.22089402401294506,-0.7462656481789594,-0.9862169084077451,0.5220072901922855
516,316.352,-0.05345749161111678,0.010634965026437716,-0.04133377561980734,-0.5252560579660358,0.12665379318697556,0.24932056168994052,-0.723782943647702,-0.9449560494754605,0.444226088080928
517,316.359,-0.057296095608783904,0.011303693092499477,-0.039493545262675886,-0.571487941366644,0.06441136854481946,0.2764595403472428,-0.623171372354346,-0.8684613660279152,0.34646124164745223
518,316.366,-0.06142636201533608,0.011558909110636811,-0.03748810661046252,-0.6085881747902762,0.008507493780081359,0.29652293171330973,-0.4577346141404037,-0.7602839901392385,0.23808062873212532
519,316.373,-0.06577094133430611,0.011452141869074887,-0.03536841615596653,-0.6327202020574181,-0.0390124199406093,0.3091029124279687,-0.24534594175423963,-0.6241967658683599,0.12843395108725456
520,316.379,-0.06958953004475459,0.011122076231358163,-0.033500165779657635,-0.6401427014193278,-0.07100945929777336,0.3136472130053553,-0.006948822916479087,-0.46339989411954907,0.026029281425543598
521,316.386,-0.07404307625622765,0.010535692171319312,-0.03130898218368726,-0.6322990732863516,-0.09652884357034988,0.3124052429857329,0.23547095936676365,-0.2801009598216405,-0.062213766140988815
522,316.393,-0.07838537084578526,0.009817176050389335,-0.029145439276018856,-0.6083565237392954,-0.10876147669687802,0.30574987349553134,0.462089210728704,-0.07629373522475978,-0.1316887530752248
523,316.4,-0.08250921417849127,0.009063975859278617,-0.027042688550220104,-0.5698844284615809,-0.10643857790603042,0.2950360481608257,0.6587856264681223,0.14397080831425796,-0.18045585826206834
524,316.406,-0.0857980714232234,0.008470858344157374,-0.025306864586150928,-0.5264013197772274,-0.09126726046677339,0.2835719398594699,0.8192287373953778,0.37171047051811945,-0.2092153784769835
525,316.413,-0.08927096685654462,0.00794769077942612,-0.023373579583359352,-0.465854518313841,-0.058209186599192324,0.26879520379487143,0.9447871224939571,0.591428212126746,-0.22130111695032895
526,316.42,-0.09229313782360084,0.007705294667819869,-0.02154532080122926,-0.3976229008444607,-0.011046845288258146,0.25356444824192503,1.0431239223970545,0.782634761493938,-0.22244312228486923
527,316.427,-0.09481586623209469,0.007833053809906303,-0.01982349033106825,-0.3231566444389811,0.04754945731292751,0.23838711466086923,1.1264317626425115,0.924553803733121,-0.21974468121129956
528,316.433,-0.0965486759737061,0.008288360144257824,-0.018431992456773363,-0.2544466027675386,0.10421932080495946,0.2254455101062726,1.2090596869270966,1.0016854826116302,-0.2201474516664737
529,316.44,-0.09802796363417067,0.009259252544060086,-0.01690781903039915,-0.168207014507751,0.173178507709774,0.21003261171461982,1.3035090659010062,1.0074231151187807,-0.22890347344605586
530,316.447,-0.09887881517254123,0.010706018932319514,-0.015494897690564969,-0.07489342502651979,0.24018331750691038,0.19365919966628606,1.415158936530712,0.9447451962410328,-0.24813177590943414
531,316.454,-0.09904824263990425,0.012599885056291428,-0.014202248348281956,0.02648557720854665,0.3009212893418213,0.17566918384288216,1.5384928415992598,0.824840364427857,-0.27600281857174686
532,316.46,-0.09860725615968374,0.014536890372024637,-0.013199728767073291,0.12050991619897837,0.3447471492389491,0.15850400989490956,1.6574452545182916,0.6648242984058256,-0.30745072054212846
533,316.467,-0.0973543510548285,0.017088248077823644,-0.012167522740765411,0.23746297090226626,0.384212195274532,0.13641199762141692,1.749952632286051,0.484979909833472,-0.3361945106742064
534,316.474,-0.09526627227999919,0.019872713984525118,-0.011295895103623551,0.35913096476282313,0.41134949235389173,0.11262447013322215,1.7948138231430981,0.3056584275437259,-0.3568491306501657
535,316.481,-0.09232314733578835,0.022806222428823464,-0.010594388922948533,0.4817618764396726,0.4267957774450368,0.08780586720235382,1.7780070011157145,0.14436521067652044,-0.36623463483697344
536,316.487,-0.08912596672522544,0.025380946093495345,-0.010131977240061056,0.5839649937428779,0.43144544410815894,0.06633136042606892,1.6959321898998132,0.013679472033679524,-0.36369545600894454
537,316.494,-0.08464769297447552,0.02839312921953136,-0.00975346412680499,0.6955417921847539,0.4291783061872311,0.041815243361301435,1.5548298204793318,-0.07973196617726674,-0.35057545971078136
538,316.501,-0.07942784415136081,0.031371561464108334,-0.009542414663377977,0.7958435858590674,0.4218023351267774,0.0184846033325774,1.3674377566984401,-0.13516509887577155,-0.32915688019258804
539,316.508,-0.0735546560351673,0.03428904796246805,-0.009488776164984777,0.8822101616235933,0.41176523583254654,-0.003159318077388267,1.1488307451990087,-0.15726326916963426,-0.30143333621159246
540,316.514,-0.06807940059217056,0.03673207850870667,-0.009557998106648839,0.9428749860332685,0.402578279576438,-0.019914662477189225,0.9131994217246437,-0.15500633890463705,-0.2680898750692205
541,316.521,-0.061288802910868946,0.03951462711573683,-0.00975704156347922,0.9972957800515202,0.3924356081458972,-0.036954896617164376,0.6723367492326114,-0.14049784682745167,-0.2283730685153579
542,316.528,-0.05417466818292237,0.04222950563056467,-0.010064931336746836,1.0353141422174779,0.38324396751864576,-0.051013610030663153,0.4353186876664178,-0.1272982952144964,-0.1812240172373488
543,316.535,-0.046850136842238585,0.044881566710502925,-0.010459006504517351,1.057409097976393,0.3744877696060293,-0.061579295046546606,0.20841230125872098,-0.12781133265784922,-0.1266045631028402
544,316.541,-0.04048767138544733,0.04710397167605917,-0.01084547629095901,1.063412720963992,0.3663138855828668,-0.0672439671012783,-0.004345911355705268,-0.15002340272412462,-0.06594070141182846
545,316.548,-0.03306821636330575,0.04962669349413495,-0.011324363381612001,1.0564315710749441,0.3544637767239835,-0.06958091594233563,-0.19904813798961316,-0.19522654381724847,-0.0021457163631553107
546,316.555,-0.025741554782315886,0.052053449679769784,-0.011804425980875513,1.0369003092063787,0.3388951334569029,-0.06757982670428393,-0.3699902730755188,-0.25836196913990567,0.060446948924741256
547,316.562,-0.018589000582959384,0.05435494633231126,-0.012256185802833063,1.0066866048940188,0.3186753386973356,-0.06149440814063833,-0.5102784166791234,-0.33073667484301467,0.1168501931353114
548,316.568,-0.012648142403089497,0.05620220025785989,-0.01260046819515088,0.9735994550719154,0.29707596982176526,-0.05326638929917329,-0.614371687153784,-0.40343754624409983,0.16282461397699524
549,316.575,-0.00598847475772719,0.05817681473737074,-0.012930239036704113,0.9291627293159553,0.26709959575236203,-0.0409538511445402,-0.6802811615597564,-0.46991658646560863,0.19589809399956845
550,316.582,0.000348618834000022,0.059926778299243526,-0.013167517827198851,0.8814354397476685,0.23288999335378968,-0.02684008899676496,-0.7102414377042349,-0.526771590829475,0.21530282280586907
551,316.589,0.006348040314000576,0.06142492848016395,-0.013302969573061901,0.8326849831084079,0.19515291548031033,-0.0118604098212218,-0.7100908772985073,-0.5726886988268115,0.22112636920836784
552,316.595,0.01122075659479023,0.06249175124535425,-0.013335765671828044,0.7915537771470545,0.16045467291475984,0.0009283768992265611,-0.6879810419656964,-0.6067233180319803,0.21357140289482393
553,316.602,0.016600564801800968,0.06346668896927041,-0.013280439493523775,0.745534282010254,0.11809896249191969,0.014879102616396044,-0.6527853953029332,-0.6272996714162538,0.1928794884397821
554,316.609,0.02166730360182295,0.06414205796295634,-0.013133930775425394,0.7021053751378498,0.07486360713249623,0.026980531125968495,-0.6125049032589959,-0.6323515524075966,0.15969259302866182
555,316.616,0.026439613697869034,0.06451564336335966,-0.012912022099976118,0.6614117951600571,0.03187507869694789,0.036421947573779284,-0.573092332953561,-0.6201084309569754,0.11538070483711721
556,316.622,0.030310018406193302,0.06460009575090614,-0.012677817349448898,0.6287231076085389,-0.0037242828482549825,0.0416463026015883,-0.5380138229495642,-0.5899331070141256,0.06219794596902199
557,316.629,0.03458535514555052,0.06443793492245185,-0.012378424812009509,0.5928016750640785,-0.042607382424363544,0.043894422381033166,-0.5085480958776643,-0.5429162372305824,0.003300459397110922
558,316.636,0.038615670573851055,0.06401654583908978,-0.012077669416008375,0.5587170187352514,-0.07778949853614336,0.04203569076208687,-0.4844998090440797,-0.4821058829416532,-0.05745413846605063
559,316.643,0.042412638681558555,0.06336456883246347,-0.011804252321144884,0.5261310120463547,-0.10848964621560911,0.036083479199488705,-0.4648853148736713,-0.4123352121954836,-0.11596205106254914
560,316.649,0.04548882172711094,0.0626472589172445,-0.011612850459951399,0.4992633364662112,-0.13061365885623988,0.02771714119803497,-0.4483614982587512,-0.33967193399358697,-0.16841429904728403
561,316.656,0.04887773282730233,0.06165965750266208,-0.011464497845257205,0.46899697787349404,-0.1515581738813926,0.014669320143132993,-0.4334412607348327,-0.2705412529804923,-0.21173069163011066
562,316.663,0.0520583495077284,0.060540943995978355,-0.011416539227736649,0.4397506451047337,-0.16807425659944336,-0.0009668579944123162,-0.4186433019632029,-0.21065067051861966,-0.2438254328228775
563,316.67,0.055037930799510894,0.059319418030402256,-0.011484275198683027,0.4115582954039433,-0.18093316213633498,-0.01838627656168175,-0.40273372866019386,-0.1639903139702562,-0.26368495385371404
564,316.676,0.0574377476839299,0.05820767363969931,-0.011641804464259947,0.3883806660728188,-0.18964830143305433,-0.03412347863087148,-0.38508641825485496,-0.13224198067199536,-0.27123104937755177
565,316.683,0.060066184479517115,0.05685046215026575,-0.011945328901092735,0.3626012755229907,-0.19812640983339902,-0.052597789035577214,-0.3659896532974561,-0.11476557907685266,-0.2670133461439284
566,316.69,0.06251877442490922,0.05543668621950356,-0.012375851911060177,0.3381387088742539,-0.20580957038407957,-0.07040878524074708,-0.3467210844954656,-0.10908137464988446,-0.251905556704274
567,316.697,0.06480452600758549,0.053969505382434516,-0.012926246716937087,0.3149331718899293,-0.2133849544924907,-0.08684687358111469,-0.32936640961190106,-0.11162553948944877,-0.2270140201821353
568,316.703,0.06663712222715841,0.05266888180031311,-0.013484470814493804,0.29593223463724944,-0.2201562395500146,-0.09922782560533228,-0.3164857163355986,-0.11853409904004297,-0.19382123019306147
569,316.71,0.06863329953698052,0.051098376766764236,-0.014220892212542906,0.27440413959723287,-0.22855948432077086,-0.11117828812283219,-0.31072992785922743,-0.12629232765584375,-0.15435249499753814
570,316.717,0.07047902750058234,0.04946740477689765,-0.015031032298315837,0.25294670714576695,-0.2374325127836349,-0.1202903078121258,-0.31442697955856924,-0.13222112896674493,-0.11112391100646626
571,316.724,0.07217234021683179,0.0477732961419985,-0.015894439738738008,0.23085692606801647,-0.24659852575863256,-0.12639753230831793,-0.3291532463299772,-0.13482835786081251,-0.06680854142378016
572,316.73,0.07349706428343211,0.04626997744787134,-0.01666081741230133,0.21071776279665028,-0.2545077056146962,-0.1290616922115701,-0.3553877971208113,-0.13400893982412196,-0.02374769348618515
573,316.737,0.07488225448540026,0.04445658203988661,-0.01756511840816968,0.18505086633682444,-0.26360526809485685,-0.12931002089348803,-0.3924107873618033,-0.1310462590213885,0.01651269968335772
574,316.744,0.07607778731476998,0.042580171952806924,-0.01846187938035942,0.15652994205428272,-0.27251189964181266,-0.1269073997319696,-0.43853918120970753,-0.128446215019898,0.053487064660712465
575,316.751,0.07706175421484411,0.04064157802221364,-0.019333272768040467,0.12460345796897848,-0.28137208053179946,-0.12206213960731568,-0.491630917230511,-0.12969293079449226,0.087678372631906
576,316.757,0.07771746631344512,0.03892963953902183,-0.020047298749952498,0.09396724156364451,-0.28927408052941234,-0.11594652102889112,-0.5497106351918312,-0.13890031962147173,0.1201948079273865
577,316.764,0.07823573679597998,0.0368687822399729,-0.020826194358563685,0.05411003916049385,-0.2995422906270034,-0.10659508143128948,-0.611518950362641,-0.1602614036576653,0.15225703699693827
578,316.771,0.0784597510361734,0.034729032577000066,-0.021531866503025677,0.009894029466152789,-0.3118147559362261,-0.09502553127199262,-0.6767033913081196,-0.19729379202846756,0.18481890226843167
579,316.778,0.07835816550441592,0.03249236294868531,-0.02214860786354347,-0.038918467111128056,-0.32723370929610557,-0.08118628601867978,-0.745436441713233,-0.2519335430631998,0.2183840337364499
580,316.784,0.07798670486839689,0.03047816064371415,-0.022594125536257018,-0.08490174489579927,-0.34416705903076844,-0.06731960488653407,-0.8175600210573457,-0.3236401657548801,0.25295195195390163
581,316.791,0.07718704532671884,0.027980978542721743,-0.023000367733692156,-0.14357240986919173,-0.36931354125226595,-0.04874959438056582,-0.8917950732147051,-0.40899628054808895,0.28808064199160577
582,316.798,0.07595891611942783,0.025286326164811107,-0.023268195448833556,-0.20732164935656228,-0.400587138150223,-0.027772609945493736,-0.9655230145063819,-0.5021521135936325,0.3230785330887762
583,316.805,0.07426734261172746,0.02235033546085862,-0.023380891098025533,-0.2759850671289107,-0.43826734869274453,-0.004426146966476689,-1.0349684238047752,-0.5956513606521846,0.35711480449338534
584,316.811,0.07242340820044559,0.01960806280590362,-0.02334159146971647,-0.3386597366346003,-0.4758235362965509,0.01752602306956002,-1.0953774641380716,-0.6809037525952143,0.38905131870328447
585,316.818,0.06978410755670361,0.016105605738996127,-0.023122057663052434,-0.41542616157685325,-0.5248784828191612,0.04519792169154834,-1.141193053745146,-0.7482997987143618,0.4171625004025133
586,316.825,0.0665989141950395,0.012246943696708779,-0.022702813541111425,-0.49462908461224314,-0.5775963864050075,0.07458611314865388,-1.1663642243797796,-0.7876230870186787,0.439055079565731
587,316.832,0.06285645510933263,0.008014334822563243,-0.02207367476019037,-0.5746449398746665,-0.6317204347785672,0.10516782425723369,-1.164877630086792,-0.7892674740807801,0.4519353958058051
588,316.838,0.05920589905842188,0.004088509664823597,-0.021362787118462498,-0.642207077089775,-0.6768879511283997,0.13179472298425957,-1.1315959266250943,-0.7460008166408849,0.45312728196552843
589,316.845,0.05444677931640036,-0.0008179338564271452,-0.02033286925645595,-0.7175414206296871,-0.7249530549422389,0.16246752330311556,-1.0632512591361205,-0.6543639158563753,0.44051705467874774
590,316.852,0.049181021384556385,-0.006033081846078361,-0.019093099849715398,-0.7869608456225898,-0.7650892278262865,0.19175230719680839,-0.9592662597608071,-0.5149934046308099,0.41268777189767053
591,316.859,0.04345826838207623,-0.0114904501673796,-0.017656928360422035,-0.8481114407991419,-0.7941588639729533,0.21858240402957346,-0.8223409783744938,-0.33194314634359584,0.3690003634200083
592,316.865,0.03823864096300597,-0.01629443764181451,-0.016285098911003007,-0.8917643655493048,-0.8071702941643706,0.23869407910791857,-0.661445525339974,-0.11032239766158108,0.31460634149448224
593,316.872,0.03185917242008213,-0.021938550893465428,-0.014544511950928566,-0.930940932427634,-0.8054334920204541,0.2586164809129946,-0.47995391507767804,0.16092369208687352,0.26582783342215355
594,316.879,0.025256147235596917,-0.027492490387856897,-0.012674735665487269,-0.955637691709649,-0.7814063635188317,0.2756053149269943,-0.2395799662899178,0.5391006646100089,0.22913758039653276
595,316.886,0.018551724553328857,-0.032764883963908475,-0.010696911153604029,-0.9599116460798565,-0.7249918010662558,0.28948740275352747,0.11505937872347834,1.1045234491301745,0.1753135632231617
596,316.892,0.012850297314307256,-0.0368536713715956,-0.008938217758228575,-0.9405641002696079,-0.6379373348358567,0.2967437290410451,0.5425741594143982,1.8545049051263143,0.0713328888459865
597,316.899,0.0064359788261912024,-0.04078075253815191,-0.006860873336775425,-0.8920983249050977,-0.4840858556080013,0.2967832485165736,0.869464038119947,2.627919316564228,-0.07018149884813642
598,316.906,0.0004058790430339545,-0.043472607492796696,-0.004816156392786562,-0.8307873274243134,-0.2850155600042463,0.2874215926226841,0.9168164808789104,3.1719437677018494,-0.20256799530365613
599,316.913,-0.005223054554646784,-0.0446908085146565,-0.0028630114268481865,-0.777479414769034,-0.06304187481259382,0.27061982621645303,0.6362961709656842,3.2952038221331503,-0.28694725072747046
600,316.919,-0.009820785576179228,-0.044516869501497545,-0.0012920408345285304,-0.7550975924156489,0.1210215458658532,0.2530370378925596,0.12447406669584511,2.9612113206292254,-0.3107012267164429
601,316.926,-0.015145547428021402,-0.04304121652488181,0.00040766494967592565,-0.766262936681028,0.3005935903097696,0.23259318616550942,-0.449773568720962,2.2705751112828847,-0.2849252607628426
602,316.933,-0.02067428949001964,-0.04049683160437652,0.0019734202339076207,-0.8133776524601981,0.4263735298340809,0.21476546647179814,-0.9229018469885383,1.3939918487237406,-0.23448087672545176
603,316.94,-0.026621120506896842,-0.037283387391301506,0.003426238884830051,-0.885716923789216,0.49175338818669595,0.2003255766485996,-1.1846846618444946,0.5108339102566699,-0.1862216880265487
604,316.946,-0.032145306101809004,-0.0343085074288148,0.004597772973115312,-0.9556782745060451,0.4998732659708052,0.19018578611128947,-1.193339458403675,-0.23483487612947124,-0.15843527220831616
605,316.953,-0.03909455875796336,-0.030928565362292715,0.005891431885205947,-1.0298224844099026,0.46582446732837013,0.17943104591734332,-0.9668334826809575,-0.7571683241096452,-0.1549013832834981
606,316.96,-0.04648731122792839,-0.02788244346346606,0.007108838734608108,-1.0823925070071667,0.40449607519290937,0.1683994824830256,-0.5647809275764146,-1.0296189837861465,-0.16650044781536494
607,316.967,-0.05414027597305807,-0.02530341776623706,0.008246230712396085,-1.1041688487426091,0.3323684097291346,0.1565696540275927,-0.06966732176537883,-1.071802441288331,-0.1781586342630336
608,316.973,-0.06073343877308191,-0.023486095965065016,0.009154362321191793,-1.0935520845881759,0.2734055239919886,0.146140882236198,0.4305368730182712,-0.9323779103731947,-0.17632095497300915
609,316.98,-0.0682334003977089,-0.02176528497310153,0.010137654712281282,-1.0492940938751454,0.21825475942579917,0.13479980093202681,0.8589085750923466,-0.6744257692334283,-0.1540986015571611
610,316.987,-0.07533543522136392,-0.020362395491893795,0.011049182759238222,-0.9798587128819852,0.18257080663326758,0.1256367839126269,1.1640738178497751,-0.3652172366424995,-0.11286359885621354
611,316.994,-0.08189506517495833,-0.01913654917468022,0.01190779899682177,-0.8943212738579359,0.16767099828464624,0.11968214111106877,1.328037993275131,-0.06888493888156369,-0.06062342420769463
612,317.0,-0.08702337881372621,-0.018122463896709955,0.012619765834768494,-0.8151166057393926,0.1703574277070312,0.11764013820562119,1.364171480871342,0.16019812678288833,-0.008785358113729068
613,317.007,-0.09240813403716273,-0.01687667196704053,0.013445943569746854,-0.7233848866699452,0.18558312362683532,0.11841064321659855,1.308409124253953,0.2833987013109708,0.03123382816726604
