,Time,Position X,Position Y,Position Z,Velocity X,Velocity Y,Velocity Z,Filtered Acc X,Filtered Acc Y,Filtered Axx Z
0,43.335,0.0,0.0,0.0,0.0,0.0,0.0,-5.59575114446803e-05,0.00103421248215033,-0.0001663740241532732
1,43.3418,-6.241083689333186e-08,1.0474755278965094e-06,-1.685557460310642e-07,-1.83561284980432e-05,0.00030808103761669457,-4.9575219420913167e-05,-0.0004945731308190063,0.008205647193405025,-0.0013204687701248324
2,43.3485,-4.79807477261094e-07,7.5356926336463585e-06,-1.2136807739524442e-06,-0.00010623988355199509,0.0016287001879796543,-0.00026240240085402555,-0.0021805459702516484,0.031993062024320784,-0.005157839512551891
3,43.3553,-2.1887040245605665e-06,3.172895053889084e-05,-5.1180071588582806e-06,-0.00039637674800679435,0.0054869639017998476,-0.0008859288888244381,-0.006521138284666281,0.08372264570885075,-0.013542750752294283
4,43.362,-7.22572956074123e-06,9.630307124887638e-05,-1.5566934558289873e-05,-0.0011072129642854586,0.013788893026547865,-0.0022331539169750366,-0.015116211402229436,0.16898218197761194,-0.027465822493507812
5,43.3688,-1.9787819509571063e-05,0.00024149273963310365,-3.914250397637082e-05,-0.002587519373606558,0.0289139506158822,-0.00470083708834456,-0.029280625237777316,0.2846433017304114,-0.04654407569293045
6,43.3755,-4.5811866933642914e-05,0.000512748225108554,-8.336582760887431e-05,-0.0051808529917855345,0.05205783609318149,-0.008500155040756725,-0.04965860867616198,0.4198401386426912,-0.06910446503338437
7,43.3823,-9.527894094732512e-05,0.000977716041066713,-0.00015950423568248588,-0.00936828642400685,0.08469740389454525,-0.01389349439266383,-0.0759294431356885,0.5590744634646905,-0.09265069906170008
8,43.389,-0.00017812803709214834,0.0016822238987479273,-0.00027540535864900985,-0.015362787052051852,0.12560344914455576,-0.020703855746585963,-0.10653889952466675,0.6860765081839995,-0.11465186478398612
9,43.3958,-0.0003103831135569033,0.0027033523127869092,-0.0004443071963077507,-0.023535764849356038,0.17472843733757007,-0.028973155329526254,-0.13858221718773686,0.7872631071918254,-0.13335810153065694
10,43.4025,-0.0005018183091850129,0.004054667214625843,-0.0006694181194297525,-0.033609069666479245,0.22864914530078814,-0.03822413515463185,-0.16804202879094693,0.8540449562506799,-0.14823515559139885
11,43.4093,-0.0007709984904900476,0.005806511419527987,-0.0009642631739439203,-0.04556157189384414,0.28659915025879,-0.0484949985260266,-0.1904332743532212,0.8839715025093223,-0.15980501797021582
12,43.416,-0.001119463739918351,0.007920958673695574,-0.0013253293221322311,-0.0584579055475174,0.3445791345678218,-0.05928594123175783,-0.20212196488956177,0.8808980505703599,-0.16866361577181968
13,43.4228,-0.0015627998442304418,0.010460710868641962,-0.0017673492945983584,-0.071935066308875,0.40240680512169164,-0.07071993302288093,-0.20208036844147517,0.8534493971496391,-0.17426070212392708
14,43.4295,-0.002088077124150029,0.013340078558312275,-0.002279649972753153,-0.08486412172693866,0.4571059380641124,-0.08220564254582771,-0.1914708980749246,0.8115533699328339,-0.1753561402077889
15,43.4363,-0.002706078515701894,0.016626939745404353,-0.0028780806459074706,-0.09690099343522846,0.5096179404916041,-0.09380337897000643,-0.16953478529179805,0.7633684021614764,-0.17247914995604036
16,43.443,-0.0033882795097852146,0.020204051131318693,-0.0035442104996026976,-0.106741094350988,0.558176503065705,-0.10504135347647718,-0.1299908995185421,0.7147197630848083,-0.16959681438095467
17,43.4498,-0.004135934788215573,0.024156625239450738,-0.004297303665977858,-0.11315751695188163,0.6043452934427848,-0.11645663663368584,-0.062448222700398355,0.6699585922401852,-0.17276640065228605
18,43.4565,-0.004896255470286582,0.028349048702450946,-0.005117148579425146,-0.11380388068142322,0.6471243970059644,-0.12827318827613357,0.04277336973040062,0.6322069444782743,-0.18692104087917177
19,43.4633,-0.0056437364012346565,0.03288947571729364,-0.006034792907828816,-0.10604345195041624,0.6882953132422096,-0.14162220243089327,0.1899747184069361,0.6025769022648336,-0.2134379638526988
20,43.47,-0.006292178213739294,0.03763111623825793,-0.007034638451414577,-0.08752126820015974,0.7271197676421988,-0.15683915386326786,0.3738274030822228,0.5792119219643747,-0.24975523279461806
21,43.4768,-0.006779665448507245,0.042704341392063146,-0.00816238962039339,-0.05585733026103671,0.7650052775949885,-0.17485236642469815,0.575826446425379,0.5570371585004978,-0.29049079357928104
22,43.4835,-0.007006305561172351,0.04794935261689152,-0.009402083296435212,-0.01179643471360007,0.8006697148905904,-0.19520544731901074,0.7653559281427926,0.5285629888740775,-0.3290425369274413
23,43.4903,-0.006896808441515524,0.05350888894678275,-0.01080748095031693,0.044001469906792275,0.8344880291954588,-0.21814680382277082,0.9081154833755551,0.4857041697219831,-0.35900667409010056
24,43.497,-0.006394395602357718,0.05919986224202155,-0.012349869841695315,0.10597251193131056,0.8643099693827435,-0.24226779061839027,0.9782390326697455,0.4220545142010756,-0.37521903661174366
25,43.5038,-0.005453285954564487,0.06516294549672652,-0.014082284967199354,0.17082444330205943,0.8895380467073782,-0.26726606982409656,0.9667776103214447,0.3345772349223671,-0.374520686994546
26,43.5105,-0.004105269685878803,0.07118433773046559,-0.015953386589332177,0.23156847272338876,0.9078924708260971,-0.2912717278273132,0.8822275133358075,0.22411840250225185,-0.35619449715696244
27,43.5173,-0.00234618367528673,0.07739415982582731,-0.018010897008003096,0.285809765686169,0.9185257925160238,-0.3138783953113386,0.7445585409890734,0.09479249529277012,-0.3218168368097195
28,43.524,-0.0002857951385148603,0.08355349893892856,-0.02017951075531315,0.32923158857389334,0.9200828979613725,-0.3334689919451865,0.5771709155976255,-0.047395311175224684,-0.27450701421831414
29,43.5308,0.0020638211835558883,0.08978247578038455,-0.022502923612860517,0.3618320355647285,0.9119691142320053,-0.34988773086302755,0.4005703887226723,-0.19595047757284048,-0.2179181114045753
30,43.5375,0.0045574358948355775,0.09583316726498434,-0.024888258401301076,0.3825305648170295,0.894207448334515,-0.3621525044921346,0.22947814451202916,-0.34470202049170423,-0.1554128891357414
31,43.5443,0.007192910357856443,0.10181937138153385,-0.027378683514893566,0.39260898313047027,0.8664408212392946,-0.37032547009406785,0.07279028358772677,-0.4880650332940417,-0.08970786181732555
32,43.551,0.00982418585376107,0.10750245117328612,-0.02987225571941507,0.3928463887811066,0.8300009076414344,-0.3740244417031572,-0.06556382415470104,-0.6211400620862841,-0.02288620747020356
33,43.5578,0.012467035910584831,0.11299215403396996,-0.03241328359067718,0.3844624514613635,0.7846175807953787,-0.37333669690352556,-0.18588431741985342,-0.7399809433199109,0.04351281107537481
34,43.5645,0.014990406490019148,0.11807497603355367,-0.03489792964095219,0.36878249762326576,0.7326427175873303,-0.3683486912380288,-0.291402343698016,-0.8420969874424746,0.10831853959719649
35,43.5713,0.017421340412585806,0.12285640614574465,-0.037371113676294775,0.34619806783768814,0.673660256586827,-0.3590583779805542,-0.3859420449261219,-0.9268845350153501,0.17031331488200802
36,43.578,0.019646510302590958,0.12715835738102232,-0.03973299582207022,0.3180317500740846,0.6105042912568459,-0.34598106851935206,-0.4714206680119552,-0.9955382050811584,0.22775069943778886
37,43.5848,0.021693698418327006,0.1310778617746032,-0.04202829633526841,0.28408240161313325,0.5422911186201607,-0.3291073177155723,-0.5467764215667995,-1.0502876206925778,0.27832098492596796
38,43.5915,0.023469822999716967,0.13447529309223988,-0.044167475395098715,0.24610404059265475,0.4718674836591219,-0.30945359566640346,-0.6092579209674838,-1.0933578224891363,0.31992435892157806
39,43.5983,0.024999807098868294,0.13743235552377198,-0.04619562095008854,0.20389128268725587,0.3978567609093552,-0.28705980286015936,-0.6567724799342164,-1.1263461163982087,0.3517025115078654
40,43.605,0.02621779284928273,0.13984745248729613,-0.04803902719880693,0.1596865532576207,0.32306770581480676,-0.2632107191457355,-0.6887880958787657,-1.1501796159381188,0.37424666247075666
41,43.6118,0.027145540023896814,0.14178181022314576,-0.04974232408115201,0.11318026280512594,0.2458610400228636,-0.2377589521318285,-0.7060124447045109,-1.1653759387074556,0.38909391026444806
42,43.6185,0.027748353517221082,0.14317176451415342,-0.05124884204325972,0.06676406356046044,0.16905068863644301,-0.2119479022290125,-0.7068637020009908,-1.1726766175111336,0.39657612137445664
43,43.6253,0.028045889894214436,0.1440556006174471,-0.05260106840595087,0.020746635555161173,0.09090110644972164,-0.18576573385630085,-0.6732750455434358,-1.1711585587590663,0.38867039570055884
44,43.632,0.02804939203785954,0.14440920802637705,-0.05376514527514159,-0.019701219541695965,0.014653343977208202,-0.1617198987382008,-0.5579289431872411,-1.1497691903922627,0.3432677513005989
45,43.6388,0.027817838103255044,0.1442557948637198,-0.05479926248357548,-0.048402878871336256,-0.05977486240577144,-0.142432221389169,-0.3028812732180498,-1.0824557728880504,0.23520158115466744
46,43.6455,0.027472997357551737,0.14363242245597815,-0.055721232599134085,-0.05453465715957764,-0.12630645333814536,-0.13278273847927605,0.11623429605654491,-0.9427186136494781,0.05852182690737884
47,43.6523,0.027190450034772103,0.14258451122449162,-0.056636309800351954,-0.028567496599157773,-0.18190273239326443,-0.13635761482016107,0.662563781251324,-0.7247057138141626,-0.16573827879539477
48,43.659,0.02720907142067193,0.1412369516560965,-0.05761204413062818,0.03412611925581993,-0.22035385518723377,-0.15490636436668018,1.24578536912212,-0.4457191614157817,-0.3988724866686789
49,43.6658,0.02778067878909786,0.1396725267460923,-0.05877768551249444,0.1339936949871417,-0.23977111834353157,-0.18792933618230065,1.749408340408892,-0.1366366636471774,-0.5915410357168942
50,43.6725,0.029098108896666565,0.13806914218305555,-0.060178024487313714,0.25926902368995786,-0.23885113927922536,-0.23008229809197556,2.063883712258568,0.164640173123984,-0.6915651936658749
51,43.6793,0.03133527852140482,0.13651159271724933,-0.06189615353870154,0.3987220424096888,-0.21925164478154013,-0.2752497758457415,2.118542880013737,0.42318107115443165,-0.6630821405943047
52,43.686,0.03444885390125695,0.13515741969331788,-0.06386851025194144,0.530703444113037,-0.18497910863070635,-0.3135134221361326,1.8988772730732433,0.6200505937072447,-0.5016360829863535
53,43.6928,0.03843668259766282,0.13405533528474034,-0.06608365599342979,0.6421873489477948,-0.1391633644804135,-0.33800003124294936,1.4447093518125895,0.7540393215784476,-0.23275780839835425
54,43.6995,0.04299042912993388,0.13329746530719788,-0.06836320568133984,0.7171399741177575,-0.08706647956204012,-0.34246256216281823,0.8367953374723069,0.8317528634034512,0.09692153586390255
55,43.7063,0.04798183761839807,0.13289700695666087,-0.07063233382077418,0.7509213460191212,-0.030715388242987175,-0.324928067082733,0.17636385736492272,0.8583095318039582,0.42896696176989096
56,43.713,0.05298426384220188,0.13287762262897818,-0.07268461485256975,0.7423402133248224,0.024929021770544686,-0.28769313643813443,-0.4375674434571221,0.8354667981175827,0.7044378880030548
57,43.7198,0.057877569458095746,0.13322857553983297,-0.07446168559389836,0.696867320761954,0.07829242259853442,-0.23497472865864255,-0.9262397858773319,0.764989819645771,0.8766743218540797
58,43.7265,0.06230795964390421,0.13390908338709973,-0.07583815860529564,0.625637212314776,0.12484424822729563,-0.1759127374299647,-1.2419541375776018,0.652014697887185,0.921130753567523
59,43.7333,0.06626601247392991,0.13488928458850316,-0.07683481931963274,0.5384959729871779,0.1634502227737866,-0.11722276678690008,-1.3715557024624891,0.5058423069033898,0.8390784994897137
60,43.74,0.06957631758085712,0.13607737827634322,-0.07745576892271287,0.44965480519973355,0.19120460941716563,-0.06813532368472376,-1.3327063623948365,0.3389815152310161,0.6551084134925165
61,43.7468,0.07235085005014771,0.13743479396035277,-0.07779834615990533,0.3663841563565182,0.20803529764456485,-0.032622687254256995,-1.1647180696827786,0.16579865127074456,0.4099742669117867
62,43.7535,0.07457647450286306,0.1388469940427038,-0.07795518855842987,0.2979813519165047,0.21351696574366424,-0.014195939170964775,-0.9174147273505955,0.0010594333505613567,0.15092286064006455
63,43.7603,0.07642606407996401,0.1402829556826824,-0.07804347327503552,0.2460155825250821,0.20882469307367754,-0.011770153948351191,-0.641124612894068,-0.14178844856526224,-0.07816955120765459
64,43.767,0.07796207639991025,0.141638687973364,-0.07815785941118017,0.21249555775723025,0.1958715130998071,-0.022374961318696433,-0.3792011397981494,-0.2524971522995876,-0.24463325509220826
65,43.7738,0.07934554616026433,0.142905083339535,-0.0783752893977725,0.19440731293524674,0.17659771224469403,-0.04157503473788553,-0.16329522812229422,-0.32555600116133554,-0.3312086906700976
66,43.7805,0.0806288538213192,0.14401276177651076,-0.07872731445107314,0.1886696008123496,0.15405256744945772,-0.06350707072495913,-0.01135665477670151,-0.36070219799180014,-0.33638691170683266
67,43.7873,0.08191866294978868,0.14497835662863504,-0.07922811500954444,0.19068602520817837,0.12994591846951364,-0.08378721117839663,0.0718325562082109,-0.3622960609912213,-0.2718480301121304
68,43.794,0.08321431175826069,0.14577192239364306,-0.0798368169416294,0.1960748131419627,0.10693938451813179,-0.09791485810083245,0.09219832213160357,-0.33800649646157244,-0.15818751072506937
69,43.8008,0.08456521638470273,0.14642710169206874,-0.08052283249604475,0.20125007698773056,0.08576040913632432,-0.10385442260940016,0.06301639698497756,-0.2971859909229015,-0.019949848904633583
70,43.8075,0.0859206982392961,0.14694156593424892,-0.08120774145008153,0.20337137214491935,0.06781100643996045,-0.1005960114315803,0.0015543213522928787,-0.24918108199547223,0.11913357148892835
71,43.8143,0.08729532019029747,0.14735160175706954,-0.08185104547625457,0.2009292016786869,0.05278776497777309,-0.08861105508975156,-0.07479905133085477,-0.2013907677240092,0.24031508420476497
72,43.821,0.08861641470876035,0.1476658604632633,-0.08238165044355235,0.19342737099708932,0.04102080403536126,-0.06977848738731096,-0.15355134786454758,-0.15678716811074506,0.332934904398142
73,43.8278,0.08988819614043264,0.147914275372243,-0.08277365009825786,0.18062599125916642,0.03204240448802352,-0.045515528702452124,-0.2303831952894706,-0.1124898785070967,0.39475134106492554
74,43.8345,0.0910391938699277,0.1481097897638803,-0.08298795643555927,0.16295542053065795,0.026320100478384935,-0.018456512283090566,-0.3074964305149064,-0.06169299236518362,0.4289059052061002
75,43.8413,0.09206836725366305,0.14828195930920937,-0.08301499335158051,0.139742633509221,0.02431800108899503,0.010504478159195207,-0.388693430490052,0.001646721560636838,0.439682080026392
76,43.848,0.09290969392546258,0.1484536330246287,-0.08284894849162297,0.11139965658011287,0.02692788411078761,0.03906115167886187,-0.474046662007311,0.077796264448225,0.42956278495009265
77,43.8548,0.09355042407180288,0.14866349251295918,-0.08248938953715178,0.07705038646119468,0.03479549480995842,0.0666914819891608,-0.5561447392935011,0.15816638812074627,0.3991165029132629
78,43.8615,0.09393712980602954,0.14893896193235034,-0.08196018444316139,0.038384161069116816,0.047434182620216044,0.09128018785866587,-0.6208277062870363,0.2265462945921515,0.3493462442888811
79,43.8683,0.0940537483249114,0.14931722083342353,-0.08126766488488936,-0.00408459669209469,0.06381843534251315,0.11240203516256775,-0.6528805535409057,0.26484453300955846,0.28413287758870936
80,43.875,0.09388380566461568,0.14980254094936651,-0.08046009490423367,-0.046644555634968284,0.08105324105833513,0.12866363070472556,-0.6426143765399674,0.25977071522753703,0.21085854400002477
81,43.8818,0.09342698084120439,0.1504065986693781,-0.07954552736753384,-0.08771568654485565,0.09661079423923788,0.14032682126587756,-0.5891767432883018,0.2068260263264834,0.1389398239488195
82,43.8885,0.09271940445637945,0.15108885829755866,-0.07858154422974267,-0.12350114474610469,0.10704879626235458,0.1474293392687094,-0.5001071945220238,0.1108993436456094,0.07725578084082
83,43.8953,0.09177881629504218,0.15182760432113773,-0.07756664340471352,-0.1531424321178658,0.11022944596683393,0.15107090338699583,-0.38888402037591757,-0.01550640036732041,0.03196074774789306
84,43.902,0.09068005325544556,0.15254734804882683,-0.07655034763280033,-0.17484653492579483,0.10461942797014177,0.1523009688257981,-0.2717734578741698,-0.15525856400053353,0.005481570788527639
85,43.9088,0.08944162088074195,0.15320829525312654,-0.07551446097152376,-0.18939828116359017,0.08977680858864694,0.15237157860856143,-0.16465747053241986,-0.28989613089282995,-0.003363866662685872
86,43.9155,0.08814568017643398,0.15373356817230743,-0.07449376608410972,-0.1974496902714984,0.06702107773396027,0.15231346241045393,-0.08042170572577517,-0.4027721583811596,0.0015948508583029358
87,43.9223,0.08679082650521082,0.15408904480372637,-0.07345612677170851,-0.20103668361776328,0.03753087268340011,0.15287457064880022,-0.02715815518690501,-0.4816878479161056,0.015233712902794863
88,43.929,0.08544009496727259,0.15423020335868665,-0.07242663112606922,-0.20216676054277324,0.004606009394279895,0.1544375623777591,-0.007240583987558669,-0.5205216119641007,0.032342645508228025
89,43.9358,0.084062553660766,0.15414361959432932,-0.07136729418994067,-0.2029924472533806,-0.03007182244056103,0.15713212471894486,-0.01752312559029237,-0.5195238984158387,0.048471734085523015
90,43.9425,0.08269498956773944,0.15383165859069697,-0.0703025256747197,-0.20523564021710508,-0.06305086521085364,0.16070922310810765,-0.050758075423055535,-0.48433474640055313,0.060412600924785995
91,43.9493,0.08128255074461282,0.1532999323290977,-0.06919533474270485,-0.21018754305552725,-0.09333921173015035,0.1649351686610426,-0.0977576777955247,-0.42406284212967893,0.0663304930602375
92,43.956,0.07984708086364874,0.15258948207650752,-0.06807574251135198,-0.21831092887391393,-0.11873549053550307,0.16927146756358746,-0.1495124184218249,-0.34898185181413005,0.06566336649922419
93,43.9628,0.0783230934606913,0.15171206201258244,-0.06691057018389164,-0.22992066023132277,-0.13932923414840756,0.17342627580718364,-0.1986826196214367,-0.2686585672445296,0.05894620196578731
94,43.9695,0.07673431069224673,0.15072793202279117,-0.06573688822214914,-0.24434285273755796,-0.1544409120581599,0.17692654859382018,-0.24031867964147943,-0.19133017812521033,0.047599616254551044
95,43.9763,0.07501470413656022,0.14964192678074448,-0.06452457777184362,-0.26142378128748084,-0.16497239442590647,0.17963534855457536,-0.27196660786028365,-0.12452639002401658,0.03364177308938445
96,43.983,0.07320093510035881,0.14851461381552036,-0.06331517067376573,-0.2799998116088647,-0.1715389384770633,0.18138169564804463,-0.29347456502027613,-0.07535454825071018,0.019515792424013044
97,43.9898,0.07122885609964857,0.14733413989234087,-0.062078598480582045,-0.30002342389367964,-0.1756592742225087,0.18231600822921679,-0.30706667289717526,-0.04822113300046061,0.008505786605685309
98,43.9965,0.06914996647085164,0.14614740671343956,-0.06085557777267897,-0.32054064440436963,-0.17858943589754384,0.18276480010033036,-0.31746295098370075,-0.04097090779601991,0.005155119281704532
99,44.0033,0.06689687217111757,0.14492334246634397,-0.059610598933621105,-0.34213414963452876,-0.18142946030674928,0.1834054466811013,-0.3301619719045129,-0.044206119713319184,0.014058930871250193
100,44.01,0.0645299852970244,0.14369792382392338,-0.05837610181941371,-0.36439924561768533,-0.184367149371308,0.18510115457511073,-0.34757174026119775,-0.0452150494753583,0.03755721336747693
101,44.0168,0.06197115943565376,0.14243538758550472,-0.05710470770112005,-0.3881965959613102,-0.18696703839858206,0.1888382919815481,-0.3661501412473498,-0.03275992090854345,0.07452571614627083
102,44.0235,0.059288520358944864,0.14117904362887773,-0.05581804751564663,-0.4125911881314893,-0.1880610083560195,0.19523937532423402,-0.37640392278054513,-0.0005397478111744583,0.12031871564968732
103,44.0303,0.05639897981814292,0.13990591451605364,-0.05445786030317323,-0.43727367681046214,-0.18638873070997747,0.20481568716803897,-0.3638647208253022,0.05069411923088099,0.16689070928157218
104,44.037,0.0533950405156204,0.13867517516508565,-0.053044798492455,-0.4594246224497047,-0.18099615017586795,0.21699380856861333,-0.3103943359245822,0.11345220316968291,0.20380265895052227
105,44.0438,0.05021328960687173,0.13747725958562734,-0.05152108169220946,-0.4763844683589525,-0.17133196142959858,0.23115819150371156,-0.1982594829951675,0.17639279535537836,0.22101060357156713
106,44.0505,0.04699778101157637,0.13637383919533072,-0.0499246132390058,-0.48346884366920584,-0.15804725955436147,0.24539955572110875,-0.017383871114789846,0.22798409678650883,0.2124864109776564
107,44.0573,0.04373393975662013,0.13535438596304036,-0.04821155381017381,-0.47648446661227145,-0.14179192641346675,0.258441452759011,0.22685688648269575,0.25954021942324895,0.17866164365589998
108,44.064,0.04062239494399217,0.1344622933777109,-0.0464464415579426,-0.4523348804405527,-0.12450436771464438,0.2684577270113288,0.5082393689203286,0.2666807921585762,0.12622663242525195
109,44.0708,0.03769274418025823,0.13367407051717645,-0.044599209625152195,-0.4093271088931654,-0.10732588538378038,0.27484578263303805,0.7816348055188541,0.24853029452204453,0.06536171718837454
110,44.0775,0.03514594029509871,0.13300500585991204,-0.04274986999515284,-0.3509128568258513,-0.09239490782940919,0.27719589796360883,0.9964535497647437,0.20595806033756606,0.006174124750438122
111,44.0843,0.03299916030190651,0.13241602701568234,-0.04086918517373753,-0.2804930235249472,-0.0808341640028952,0.27594669657043913,1.1155536776514996,0.14076776066195332,-0.04363973986485238
112,44.091,0.03136656075614136,0.13189605023697343,-0.03903386299377454,-0.2068501244644942,-0.07438278486538798,0.27191067058251694,1.126083878844527,0.05560763941510836,-0.07921402538539149
113,44.0978,0.03020514272781558,0.13139128471346403,-0.03720494316963169,-0.1347434132784645,-0.07407766322564624,0.2660069247537437,1.0365156053004467,-0.0464565369746631,-0.0978490728176185
114,44.1045,0.029511806403877558,0.13087194863996326,-0.03544429854247627,-0.0722226535686392,-0.08094803035662261,0.259558635590989,0.8665719267528561,-0.16267256011682996,-0.09843227062204472
115,44.1113,0.02919135812668111,0.13027005697418712,-0.033699670642838124,-0.022026839724456557,-0.0960789301658135,0.2535672172438838,0.638883520322065,-0.2911281414237671,-0.0812602713567213
116,44.118,0.029155372793470233,0.12954687120889502,-0.03201499459584178,0.011284949213750513,-0.11979741768250486,0.24932115499367002,0.3751036815757758,-0.4308457770262937,-0.047986848579253685
117,44.1248,0.029285358588256816,0.1286175021371446,-0.030325207721773488,0.026946166899959666,-0.1535464269500367,0.24767498443829875,0.0946021298832829,-0.5813428089164379,-0.0013845280277867782
118,44.1315,0.029455810790066143,0.12744314757802389,-0.02865986426406246,0.023935087371465304,-0.1970071727873733,0.24944246562453565,-0.18625725268240687,-0.7415714346188139,0.05518540031849264
119,44.1383,0.02954589865365866,0.12591641952076515,-0.026943992668751957,0.002561343096927994,-0.2520304911123622,0.2552256506433808,-0.45477667581156705,-0.9086688532591332,0.11826187986882886
120,44.145,0.029435763120870477,0.1240092362494054,-0.025200668035536913,-0.035437621541150925,-0.3172779480993256,0.265169762256465,-0.7018848262126607,-1.0774174077905754,0.18442981671388015
121,44.1518,0.02901084214430631,0.121588960085918,-0.023348227730569347,-0.08953913627187018,-0.39456798233831253,0.2796656215576557,-0.9207090478341612,-1.2406385044192232,0.2503249700647845
122,44.1585,0.028188016196536308,0.11865584398460689,-0.021412504400774284,-0.1560805496298042,-0.4809890628298311,0.2981622380830888,-1.1047643263629014,-1.3899578215609933,0.31269890325561983
123,44.1653,0.026859989032579794,0.1150556205520618,-0.019307778932349473,-0.23451567506297355,-0.5779001820355238,0.320874664394299,-1.24763476396345,-1.516566868786129,0.36848431279111415
124,44.172,0.02500347143153348,0.11083939483797395,-0.017071705808375023,-0.31966868345872496,-0.6806746579916307,0.3466098502254333,-1.3443623478293136,-1.6118152032386466,0.414876470373867
125,44.1788,0.022519396454486446,0.10583904844642106,-0.014616781555887982,-0.41094160390746215,-0.7900154571697999,0.3754266946231158,-1.3930634400338386,-1.6674961397570343,0.44938833666011585
126,44.1855,0.019459224192144284,0.10017797123152691,-0.01200026934316507,-0.502542653508784,-0.8998583383222417,0.40562172708579414,-1.3952074675581752,-1.6760431674499943,0.46972701120886146
127,44.1923,0.01573021444210334,0.09368401756869316,-0.009135082386661577,-0.5942249200317886,-1.0101280330979157,0.43708031894396754,-1.3544952858534762,-1.6311272902791754,0.4737681698266989
128,44.199,0.011459753104260456,0.08656827721271367,-0.006103997672332549,-0.6805396584297168,-1.113973565703506,0.46772108831909837,-1.2728640623071488,-1.5298569856410265,0.45891509315722995
129,44.2058,0.006559978668537039,0.07866423116780939,-0.0028247466372512183,-0.7605704697230703,-1.2107458592664697,0.4967645102334586,-1.127392285150028,-1.3725040941570457,0.41214514820770376
130,44.2125,0.0012478523944823528,0.07027490144065392,0.000581107034358621,-0.8251388658168152,-1.293531671229553,0.5199082275612753,-0.8380238444864213,-1.1474372390775998,0.2923331738152927
131,44.2193,-0.004492386637684122,0.06125637785792548,0.004154694407778,-0.8631667318796135,-1.3589752648676845,0.5311468822682068,-0.3024947310782237,-0.8153243335211601,0.0447326619706337
132,44.226,-0.010254361632700135,0.05202451314151586,0.007680838400424718,-0.8568258039455108,-1.396805247492512,0.5214334140439089,0.495508074950674,-0.3361934760071246,-0.3404037375694223
133,44.2328,-0.01586292580529968,0.042518866188979654,0.011097877902348379,-0.792751893878282,-1.3989732679599869,0.48357820416917435,1.426174422827518,0.27117095774968875,-0.7949365934587612
134,44.2395,-0.02076827070075789,0.03327553543911004,0.014117313910018794,-0.6715301644669828,-1.36022994095543,0.41774597722469053,2.2637289457063803,0.9081484061679111,-1.2089496498758974
135,44.2463,-0.024761481776559,0.024292303454399422,0.016652222448187003,-0.5029436813571555,-1.2818971133718595,0.3278153575308445,2.7924584106483823,1.4411826025200465,-1.4882183190943685
136,44.253,-0.02750529987015001,0.016056936907886253,0.01851052253593303,-0.31610649583392886,-1.1764212587208362,0.22690108657226907,2.894732850997534,1.7694275188327135,-1.5835404336600816
137,44.2598,-0.029034171584897284,0.008468863307705774,0.019704810265415842,-0.13356165556243613,-1.0553650942739594,0.12436001033452529,2.580088714306942,1.8612469978564723,-1.4918359762181033
138,44.2665,-0.02942944691658788,0.0017949314864671283,0.02023669905225451,0.015569019236922582,-0.9368533598264901,0.03441276185607105,1.9593431348033938,1.7461660482384689,-1.246094399489499
139,44.2733,-0.028966460913247307,-0.004209136220950032,0.02022710083446082,0.12060333468680796,-0.8290489070613353,-0.03723576708950942,1.1908096411763713,1.4870677257576521,-0.902763441741218
140,44.28,-0.027980435634950212,-0.00947291279931698,0.019820321860199785,0.17373256928237935,-0.7422276834954589,-0.08419079239135835,0.42640653494884045,1.1557086712774858,-0.5265141875444193
141,44.2868,-0.026775853373492028,-0.014296472727923365,0.01916839653667565,0.18055633114658384,-0.6764664131538192,-0.10755194982166918,-0.22175063475967877,0.8165805508816549,-0.17412554732685973
142,44.2935,-0.02566647832648177,-0.01868196018751745,0.01844130371811895,0.15060039930413277,-0.6326343210529501,-0.10949068258324632,-0.6900866600044805,0.5176372092372575,0.11511189868175417
143,44.3003,-0.024829210860057804,-0.022892673731065266,0.017746114780272007,0.09565473787944642,-0.6058108388143532,-0.09497665207766792,-0.9578245690414633,0.2868433709753729,0.3201878725593659
144,44.307,-0.024407957682083016,-0.026905339011236238,0.01719298836077433,0.030092479426420335,-0.591999692579583,-0.0701357119514368,-1.0378440251071483,0.13355811366342554,0.43595270631596966
145,44.3138,-0.02443058953254394,-0.030909798628740236,0.016818831326019943,-0.036748906032575246,-0.5857825478630527,-0.039910474741056856,-0.9668396352005384,0.05290433533297167,0.4705521296997835
146,44.3205,-0.024870576477020748,-0.03482530993052938,0.01665182134850464,-0.09459048037837064,-0.5830267959542277,-0.009943249890361511,-0.7938168168757858,0.03097879602144369,0.44162891621661404
147,44.3273,-0.025668289827958247,-0.03878076479981728,0.01667639422421472,-0.14003109342683268,-0.5803422832483748,0.017170566275681035,-0.5690222964531643,0.049534178393382255,0.3715592584958357
148,44.334,-0.026706119016546074,-0.04265371573313606,0.016863481905940857,-0.1697686643604784,-0.5757624729658168,0.03867650289628244,-0.3361682472963887,0.08987199466589627,0.28306618172195464
149,44.3408,-0.027913189681343153,-0.04654329871296625,0.017180760927805305,-0.18525211940345382,-0.5682325211021627,0.05464085647563688,-0.12820616859304346,0.13596371116684888,0.19573117635404122
150,44.3475,-0.029164712679424363,-0.05031608914141859,0.017582010439083293,-0.18833683524792996,-0.5579735769441464,0.06513511704026897,0.034309608621564014,0.17631126453381224,0.12370666367515824
151,44.3543,-0.03042533058328431,-0.054067168347715674,0.018047435982304554,-0.18243313647528625,-0.5452850131423436,0.07175474861293366,0.142752078290137,0.20423974217479812,0.07482703157723393
152,44.361,-0.03161009028344989,-0.05767420350881051,0.01854203222996354,-0.17122647551469963,-0.5314419006181038,0.07588592233015683,0.1983707239446519,0.21713477361790548,0.05092296299243394
153,44.3678,-0.03272818088860559,-0.06123897460380971,0.019069387112993604,-0.15762370247200505,-0.5170201861455237,0.0792184550315018,0.20959892938133656,0.21539628716493475,0.049025202473385356
154,44.3745,-0.033740361460002234,-0.06465712981850388,0.019612491644041195,-0.1445197516764712,-0.5033246540624452,0.08290230050521218,0.1892760282389858,0.20148598478983565,0.06310843799379698
155,44.3813,-0.0346844267115177,-0.06803660060366243,0.020193121699037208,-0.13314649876903092,-0.49063734157162314,0.08787124508171347,0.15182663011412786,0.17902749303364165,0.08591842512511594
156,44.388,-0.035547618971691876,-0.07128745236327966,0.020803476853971433,-0.12452283262643593,-0.479766168762598,0.09432432355550353,0.1106716439431692,0.15188328808444684,0.11050870154197234
157,44.3948,-0.03637316654391592,-0.07451865871959912,0.021472297858918358,-0.11828527685128205,-0.4705886419198246,0.1023877367230515,0.07640296644742035,0.12336591534550696,0.13132639077833214
158,44.4015,-0.03715111576706298,-0.07764748383350412,0.022188682361347162,-0.11393837184925837,-0.46338900402166566,0.11145838340488112,0.05591373524920592,0.09578595009689919,0.14477765350982164
159,44.4083,-0.03791363336106515,-0.0807796961097515,0.022979933379828905,-0.11033150873966864,-0.45784990075719756,0.12126250438392329,0.0522620527167211,0.07034091473070259,0.14926414402925897
160,44.415,-0.03863994400282026,-0.08383434990495216,0.023824758121172882,-0.10647763805283142,-0.45398705303375164,0.13092398556942128,0.06504703450975785,0.0472414271159061,0.14482448302239379
161,44.4218,-0.03934627116986433,-0.08691316256782251,0.024746490341412977,-0.10126564637194509,-0.4515460831048057,0.14017372626596564,0.09126921310515852,0.025967296764633527,0.13259053327496792
162,44.4285,-0.040000776732744436,-0.08993505052067412,0.025712815513283797,-0.09410914851757501,-0.45051002222374237,0.1482815489192618,0.1265695000363515,0.00556966078916169,0.11420583124781268
163,44.4353,-0.04060749674907001,-0.0929995901310606,0.026744429959572318,-0.08433791510763637,-0.45082515730191275,0.15513446469508232,0.16648594493154387,-0.015021082803529111,0.09132444295154342
164,44.442,-0.04113141263204838,-0.09602581529051962,0.027801076756495624,-0.07205488578137935,-0.4525256365661643,0.1602824896102808,0.2074007460673704,-0.03674029855735283,0.06537778005862123
165,44.4488,-0.04156986574595427,-0.09911398349933954,0.028902683316264978,-0.05690191242626546,-0.4557591307340307,0.16371943973372483,0.24706197761015636,-0.060237537546874324,0.0377020365317675
166,44.4555,-0.04189259453153911,-0.10218364259595625,0.03000483385872803,-0.03943503849455135,-0.4605570175094668,0.16528072219543938,0.28461726233625256,-0.08580672910814131,0.009822292998020824
167,44.4623,-0.04209219794220711,-0.10533800875039737,0.031127993470626118,-0.019271846996051202,-0.46719773379696916,0.1650603401276066,0.32011018696975563,-0.11335933160228093,-0.016431915575042692
168,44.469,-0.04214717281801637,-0.10849638495621709,0.03222778396964244,0.0028614363067256225,-0.47560113361160145,0.16323533122044456,0.3536112407994372,-0.14243419183394243,-0.039120059692469726
169,44.4758,-0.04204403868079757,-0.1117661532626611,0.03332693660025612,0.027472133463516644,-0.4860954271074539,0.16004485425424378,0.3845042563616113,-0.17230702056229646,-0.05656761941248152
170,44.4825,-0.04177238050199242,-0.11506421412273506,0.03438556046219577,0.05361986020963737,-0.49840035201878624,0.1559622687127153,0.4114139793257725,-0.20224615649912375,-0.06770338558944515
171,44.4893,-0.04131207579984198,-0.11850254341033607,0.03543023851382119,0.08176387571699426,-0.5128729678641082,0.15129598176542344,0.4326715768848442,-0.23181152060910074,-0.07224627483884649
172,44.496,-0.040667466753193805,-0.12199304120390904,0.03642818199219386,0.11065673522269723,-0.5290666720080838,0.14659759386811436,0.44680655079424014,-0.26111333502595707,-0.07076931661619303
173,44.5028,-0.0398130340567174,-0.1256532620513637,0.03740969049640309,0.14064699903513,-0.5474688713611972,0.1420813779581995,0.45265104453018096,-0.290799048351285,-0.06467946528528173
174,44.5095,-0.03877150504222412,-0.12938863484913582,0.03834839019241095,0.17025718439560036,-0.5675677846898246,0.1381274865216701,0.4486619728233605,-0.3209976019302962,-0.05567418254105638
175,44.5163,-0.0375139435143758,-0.13332392039179244,0.039276359583924995,0.19961385320693534,-0.5898691396212283,0.13480468745311436,0.43179306088102076,-0.34785690380302975,-0.04398205518468032
176,44.523,-0.03608558119980433,-0.13735365360731358,0.040171977083929805,0.2267629571127692,-0.6130362978473806,0.1325438200109217,0.3946063845097946,-0.3573349425200986,-0.024837144403291708
177,44.5298,-0.03446280092356194,-0.1415991350115353,0.0410720599702917,0.2505253594292264,-0.6356347033945968,0.1321864406838185,0.31806734788436736,-0.3204286023020289,0.014118747520046118
178,44.5365,-0.03273063520815721,-0.14591472036134254,0.0419685877474393,0.26653903322928507,-0.6525997293846433,0.13543379130073604,0.16937751191479083,-0.19597474264289821,0.08472829944404794
179,44.5433,-0.030908079476844062,-0.15036839092151438,0.04291945458251803,0.2695067700976792,-0.6573033765471994,0.1442329248986655,-0.08037017660445571,0.05490458759048036,0.1791722649665475
180,44.55,-0.029158189690299784,-0.15471767188032526,0.04393453059410116,0.25284839006517856,-0.6409894469793916,0.15877483975323886,-0.42669908312991073,0.44167984457924575,0.26347329756969207
181,44.5568,-0.02757989709646802,-0.15892210596672363,0.04507782505554936,0.21135531400261415,-0.5956088137250131,0.17748823714302087,-0.8177468694374216,0.9193603755577533,0.2977724294374907
182,44.5635,-0.026382687871405415,-0.16265827573168024,0.04632848672034346,0.14602057407603933,-0.5196657429792739,0.19584360309430143,-1.1709962223200114,1.3922927737800772,0.2609518767021416
183,44.5703,-0.02568214395935507,-0.16583569539708548,0.04770765265975197,0.06002175299742642,-0.4148694527273997,0.2097934379078762,-1.408250605644079,1.7507212329755397,0.1574267329377018
184,44.577,-0.025598386390560075,-0.16821187703961998,0.049131875305385514,-0.035019493655618725,-0.2944385002685028,0.21534765034125614,-1.484737457454909,1.9151114466304944,0.011639549708426788
185,44.5838,-0.02616355782957648,-0.16978580583120348,0.05058160845642276,-0.13120740017277643,-0.1684817325502832,0.2110444529050949,-1.4000968886619933,1.8625402644458116,-0.1406995553937125
186,44.5905,-0.027327955161906763,-0.17053068599528032,0.05195110176073052,-0.21637389306003263,-0.05387055523377311,0.19775951852992485,-1.1923106814746245,1.6261425922137713,-0.26368441388104447
187,44.5973,-0.029038868950014094,-0.1705680729607489,0.053228425637903753,-0.2868360446187148,0.042874388919477716,0.1779239747564113,-0.9209657404581264,1.2753982335726364,-0.33121633844513315
188,44.604,-0.031133311643272966,-0.17004244622671877,0.0543474898574522,-0.3383707294882103,0.11402911377603732,0.15612504600421123,-0.6477134742319045,0.8905010669107716,-0.33232757421641934
189,44.6108,-0.033555161018929365,-0.16910493067692586,0.05534065082263396,-0.37393791041090246,0.16171075381017846,0.13598112022578876,-0.4190050856738963,0.5395501508599015,-0.2718220642920032
190,44.6175,-0.036134647259867904,-0.16793307854874157,0.05620339018325601,-0.396057982406325,0.18809585161785597,0.12155301727324991,-0.25431419928025856,0.2635934913934868,-0.16735914475915686
191,44.6243,-0.038873004103874835,-0.16661591849876814,0.05700596194311186,-0.4093410893606125,0.19930416308030433,0.11449750033146784,-0.14406813954356693,0.07256230032321043,-0.0442474733725299
192,44.631,-0.041637936889646884,-0.1652779299908878,0.057776024813763316,-0.41601198101883863,0.2000953915107113,0.11537201329575954,-0.058989065797038075,-0.04847786872157455,0.07086702704857
193,44.6378,-0.044469666552068396,-0.16393721740581255,0.05858625847778777,-0.4168496843994546,0.19423183939387553,0.12293200553501911,0.03386495641819402,-0.1273797536072466,0.15586963931502287
194,44.6445,-0.047241475954437194,-0.16267113802465016,0.059448715626732936,-0.41055610735215947,0.18370230423656697,0.1345178896724106,0.15770706008182211,-0.19313181997559475,0.1967964471499952
195,44.6513,-0.049978971713640914,-0.1614742286752135,0.06040717761772914,-0.39458970417854017,0.1683298573625386,0.1473826959147752,0.32115176871481793,-0.2679132773947691,0.18904036173712255
196,44.658,-0.052530210987919164,-0.16041594970484865,0.061430548078502484,-0.3669742582923351,0.14757431289551762,0.15810102371896192,0.5194427954275376,-0.36387075849176354,0.1372179259625137
197,44.6648,-0.0548831443184917,-0.1595085178366407,0.06252728804741502,-0.32506495658210705,0.1193174130480659,0.16446955537303568,0.7374864524699171,-0.4836003857125603,0.05378486758230154
198,44.6715,-0.05687493884219193,-0.1588307881248339,0.06363030909067444,-0.2695005728804557,0.08298996361061042,0.1647904575401201,0.9538539333414928,-0.6221813804813917,-0.04401683347616312
199,44.6783,-0.05846952364398152,-0.15842420409146654,0.06473021627542548,-0.1994949570577739,0.036593575615106365,0.15871165562202855,1.145730227067625,-0.7693230037139437,-0.13829648626974192
200,44.685,-0.05953769340973043,-0.15836405819645635,0.06575477404130282,-0.11936168943433617,-0.01863957710461043,0.14712648344573867,1.2934695399321523,-0.9119349462013729,-0.2143479286048784
201,44.6918,-0.06004587075164735,-0.1587117718616253,0.06670111843333326,-0.03010223465891139,-0.08362914794510642,0.13121010244563194,1.3835690834823398,-1.0372097320500189,-0.2630106525053152
202,44.6985,-0.05994012228184968,-0.1595111278279789,0.06752033902487536,0.06166894206119074,-0.15498457335439847,0.11333335771611014,1.4098803728018612,-1.1347987507490553,-0.2811447634933496
203,44.7053,-0.05920525060069797,-0.16082924560969067,0.06822849092702168,0.15446978768936345,-0.23269712714915597,0.09494661350344406,1.3733704173490915,-1.1959292214995536,-0.27030409466953875
204,44.712,-0.057878528127688775,-0.16265273188501078,0.0688094134959063,0.24156677141773286,-0.311627134140254,0.07846310855160961,1.2777999232259714,-1.2066441462394932,-0.2314420917806752
205,44.7188,-0.05596441205435703,-0.1650374618483698,0.06929894541423728,0.32140854426820964,-0.3897640315537407,0.06551686742812647,1.1167868487902572,-1.136810592711822,-0.15683708382934022
206,44.7255,-0.05359320916169434,-0.16787713693451464,0.06971672692283908,0.386413214736103,-0.45790017326624216,0.0591940306620509,0.8619091630141432,-0.9372051802449199,-0.035625577734389846
207,44.7323,-0.05081376773018593,-0.1711605005944756,0.07012883871060403,0.4310695592363028,-0.5077950208391477,0.06201531868048483,0.477408439901882,-0.5592237907584119,0.12024066990718793
208,44.739,-0.04787693096918991,-0.1746237149077437,0.07058628164754924,0.44559813061390335,-0.5260002965550775,0.07453481175101996,-0.035169043330021466,0.005068124809734662,0.26084380956442244
209,44.7458,-0.044919641890565305,-0.17812151735033185,0.07115918247465858,0.4241927748632209,-0.5027651277347256,0.09396543151629894,-0.6068129655968517,0.691793003348296,0.32191260228406066
210,44.7525,-0.042268025492070926,-0.1812626581573961,0.07185345449571272,0.36733450827001585,-0.4348888445239505,0.11327994790300114,-1.1239122967003239,1.3743128613311097,0.2660075620551238
211,44.7593,-0.04006541533416142,-0.18384768458632506,0.07266549379087939,0.2804920087616716,-0.32541304633690216,0.12555513891053288,-1.4806378422442403,1.909047325137804,0.1021457111146091
212,44.766,-0.03852700121537097,-0.18557708966588832,0.07350443378567502,0.17873608639999727,-0.19082727592116652,0.12487471028237808,-1.6167401816005167,2.18764796229958,-0.12285747541025978
213,44.7728,-0.037668019351561645,-0.18638085621513634,0.074300575259691,0.07390563824986486,-0.04557465032830618,0.10928454678120317,-1.527298277001184,2.168718428720658,-0.3447173035641116
214,44.7795,-0.037478853807453964,-0.1862406361159679,0.07493929137163488,-0.017438311650574995,0.0874313963487264,0.08137697917213468,-1.2531466982493313,1.8798911898054833,-0.5047692383981478
215,44.7863,-0.037837455090773416,-0.18527442463527427,0.07537083320179484,-0.08803265403164227,0.1967484509141702,0.0455470885220013,-0.8640943450008604,1.3987080130004788,-0.5698284205776195
216,44.793,-0.038570907174585334,-0.18371124982558729,0.07555397592857595,-0.130908266509159,0.2698708952609001,0.009122382158906338,-0.4410088545414842,0.8270872715640826,-0.5389137773745099
217,44.7998,-0.03951761730859168,-0.1817519681906361,0.0755055557324449,-0.14753589055159677,0.30638840913664916,-0.023363616315102177,-0.0576810813226184,0.2681333448111161,-0.4353950267058047
218,44.8065,-0.04048664185211141,-0.1796908827048961,0.07526880121141094,-0.1417251672153948,0.30886098959150615,-0.04730937503829682,0.2345553737122439,-0.19286975144666252,-0.29349686589393864
219,44.8133,-0.0413768538547441,-0.17766936307556322,0.0748971368594355,-0.1201018923825176,0.28570360727124916,-0.06200366966039002,0.41396238878092645,-0.5016584309680486,-0.14720932423625024
220,44.82,-0.04208260732515151,-0.1758807512844396,0.07446297549108415,-0.09057078535096998,0.2482103602281673,-0.06759673880265829,0.48494354039059484,-0.6396093865544908,-0.02303972903765092
221,44.8268,-0.04259044738771157,-0.1743357241180914,0.07400798368963218,-0.05879393893143659,0.20620939458024318,-0.06622437927148148,0.46809662111868827,-0.6200690143845551,0.06419906033106622
222,44.8335,-0.04288989826337003,-0.17307512526360033,0.07358366031689746,-0.03059438216061219,0.1700887709393593,-0.06043931408212702,0.39027786359748884,-0.4794171214205591,0.11189421628735392
223,44.8403,-0.043022181912433934,-0.17200300701619506,0.07319971388244098,-0.008312573446427891,0.14524012535638375,-0.05248610781686473,0.27799041876521957,-0.2658348424473426,0.12663558882580922
224,44.847,-0.04303033996128276,-0.17106229634477935,0.07287519697868455,0.005877334984090996,0.13556903029000764,-0.04438460972233545,0.15394031816814333,-0.02854642431180449,0.11996826061892665
225,44.8538,-0.042968850053452516,-0.17012210145475462,0.07259883880349302,0.012207932024808457,0.1409588785408596,-0.03689720651048725,0.03592475360395206,0.19019688451432729,0.1045913407994985
226,44.8605,-0.042890005803205664,-0.16911715567252378,0.07237317833199115,0.011327665063797569,0.15902493705033874,-0.03046412826616836,-0.06271945485443936,0.3597211085220261,0.09122699308364943
227,44.8673,-0.04283509454362255,-0.16794255591382767,0.07218616588473488,0.0048227054018289165,0.18644558021330093,-0.024539532691574068,-0.13237504020669166,0.4626693151121401,0.08646142346789587
228,44.874,-0.04283574117589935,-0.16658801120309588,0.07204141029271319,-0.005015729962068306,0.21789612448262735,-0.018671091792499622,-0.167099946387284,0.4946629206610524,0.09216975055261353
229,44.8808,-0.042907538613164674,-0.1649978018445233,0.07193696353600637,-0.016101163351268374,0.249812510391773,-0.012048542533039955,-0.16537052875556588,0.4625622608455346,0.10645145095084589
230,44.8875,-0.04304804281521659,-0.1632311411145543,0.07188173536961007,-0.02584038950003751,0.27754890153910167,-0.004437477286747019,-0.1310845997744428,0.38171379116698717,0.12522397083050532
231,44.8943,-0.04324697685987171,-0.16126965456845924,0.07188203991265107,-0.03266962363383571,0.2993589061360553,0.004527048769397843,-0.07373542282726235,0.272404305675429,0.143636986849383
232,44.901,-0.043474719571232126,-0.1592168057872524,0.07194546286862291,-0.035313275279699456,0.3134317748210142,0.01440517689383055,-0.00673545612056409,0.1559638245083722,0.1570462191910366
233,44.9078,-0.04370928128959052,-0.15706198458977336,0.07207954788873487,-0.03367546541396248,0.32033916561414644,0.02503159372734503,0.05585608182255247,0.05120024552495528,0.1616575905442252
234,44.9145,-0.04391745216392121,-0.1549131820649008,0.07228210666258231,-0.028465094087783117,0.32109442390052856,0.03543371189879878,0.10274392166832311,-0.028210719566437458,0.15497550046328384
235,44.9213,-0.0440849061972521,-0.15274144401371226,0.07255606020816051,-0.020786092185967532,0.317652061742643,0.04514086033002057,0.12756204123648276,-0.07503141288458495,0.1361579300394269
236,44.928,-0.04419590582964531,-0.15063116541828306,0.07288517755258297,-0.012348126438896762,0.3122818473411635,0.05310312307974165,0.12928364463954253,-0.08843410032019867,0.10620769437510494
237,44.9348,-0.04425260516326354,-0.1485259433701331,0.07326600007189898,-0.004328148154687919,0.3069011079965608,0.05890350024840614,0.11124876371728354,-0.07294316872377705,0.06775520680929012
238,44.9415,-0.04426059557822144,-0.1464817837130078,0.07367079695093158,0.0019429496597898046,0.30329580457861266,0.06193138901514338,0.07963900089758567,-0.03679970733560136,0.024411577266470915
239,44.9483,-0.04423359910795567,-0.144422415031913,0.07409243328652429,0.005997188653665508,0.30240086633113145,0.06207929792378773,0.04195432949473942,0.009959029671780294,-0.019975544555047537
240,44.955,-0.04418818999893675,-0.14238891004075863,0.0744993595455332,0.007557769262440562,0.30461554893927933,0.05939122715358955,0.005548636129978952,0.057454336361960144,-0.061847420997346005
241,44.9618,-0.04413885054553872,-0.1402999506218973,0.07488506933422646,0.006953834678160511,0.30978428013772924,0.05405282834445544,-0.023661632811408397,0.09756445786114248,-0.09825998538551951
242,44.9685,-0.04409948219558684,-0.13819991174106616,0.07522241427193434,0.004797911576127615,0.3170929977221107,0.04664715306084629,-0.04196313557891719,0.12490771577671536,-0.12716351177101026
243,44.9753,-0.044077057169390206,-0.1360139655693254,0.0755084727872101,0.0017976843640610941,0.3258323469076812,0.0374877043732209,-0.04801863885527508,0.13719981526457437,-0.14754349789702687
244,44.982,-0.044074995816010626,-0.1338009290171182,0.0757258730754045,-0.0011823549970230687,0.33477557912410455,0.027407904042997373,-0.04269164328827516,0.1350258231685743,-0.15927846688822428
245,44.9888,-0.044091112806125904,-0.13149541533967984,0.0758757268150892,-0.0035579362133541822,0.3433166789461634,0.016666725276041322,-0.028555964992290923,0.12113588169079074,-0.1628672429694815
246,44.9955,-0.04411908761287202,-0.12917091128919825,0.07595194178316596,-0.004792752367572232,0.350565127167523,0.00608401146328307,-0.009030961948091025,0.09950173533156836,-0.15926305112519304
247,45.0023,-0.04415127623205786,-0.12676735645054282,0.07595827070784683,-0.00467448856944357,0.3563627665548336,-0.004222563027733488,0.012577888782213815,0.07437905526376867,-0.14984815795589088
248,45.009,-0.04417750601275892,-0.12436608613115939,0.07589847320235098,-0.0031552967144515215,0.3604343437086496,-0.013627438612813614,0.03366523256581331,0.04955686223280767,-0.1364295768245094
249,45.0158,-0.04418921643853135,-0.12190634988850871,0.07577660990718103,-0.00028894615979316047,0.36301749236525455,-0.022214707025413893,0.05230135957136645,0.027916036757570914,-0.12111680039678033
250,45.0225,-0.044178038686487855,-0.11946981593714265,0.07560277328818725,0.0036255885608342106,0.36430607520647096,-0.029676821032415094,0.06685429776855817,0.011307509957448126,-0.10602465142490264
251,45.0293,-0.04413720999167515,-0.11699118408804972,0.07537841811009066,0.008382851089965386,0.36470329217397934,-0.036309996054832046,0.0758238707711069,0.0006056836260316554,-0.09291523427746287
252,45.036,-0.04406410399203813,-0.11454806882491071,0.07511578650978484,0.013439835368838127,0.36458484607623753,-0.04208749657374639,0.07810713991365065,-0.004211098737412411,-0.08294777914413308
253,45.0428,-0.04395554374111296,-0.1120698169214648,0.0748115129386621,0.018489650197396207,0.36431277258450173,-0.04740473022708183,0.07334515576923964,-0.003948835105075094,-0.07652484922349376
254,45.0495,-0.04381675589916822,-0.10962935383462162,0.07447742750499374,0.022939556353259897,0.36418367124904927,-0.0523222648977687,0.06210682791323913,1.9082123644410375e-05,-0.07316141440572611
255,45.0563,-0.04364852645407008,-0.10715221965908676,0.07410525639744187,0.02653969220502788,0.36438520390843543,-0.057139825558690974,0.045867198468284444,0.0060252155299051514,-0.07132519479863535
256,45.063,-0.04346269671144484,-0.10470882202103997,0.07370703095653273,0.0289318727577121,0.3649872253590328,-0.06173344038429574,0.026949078962814545,0.01229988995470455,-0.06850117874893064
257,45.0698,-0.04326191929421244,-0.10222354296199296,0.07327242597049125,0.03012030878124269,0.36597720377261683,-0.06609155551029139,0.008694082251345913,0.01739119942265039,-0.06220589925116285
258,45.0765,-0.04305976225352455,-0.09976728968531412,0.0728170806324574,0.030225076498705785,0.3672327295641157,-0.06983242599230677,-0.005505027323173532,0.02082611417146549,-0.05166354197750644
259,45.0833,-0.04285649139199434,-0.09726515996420569,0.07233199036787205,0.029560471010192924,0.36868777664442226,-0.07284118123871319,-0.014427590084792434,0.022813153429569473,-0.038574002306133705
260,45.09,-0.04266212543192319,-0.09478988530311044,0.07183685815251696,0.02845921856326697,0.3702001818912345,-0.0749594800612665,-0.019093752443913637,0.02322338838436504,-0.025905509732343006
261,45.0968,-0.04247310285505829,-0.09226743518828683,0.07132243040057601,0.02713565698524647,0.3716969107041242,-0.07634279992140372,-0.02060204755557108,0.021665983290199566,-0.015582539947557539
262,45.1035,-0.042295697136630415,-0.08977268203389266,0.0708083757843839,0.02582127388878436,0.373005523443941,-0.07710633924053234,-0.019406840609430005,0.018167259315820465,-0.007659054767730825
263,45.1103,-0.04212412864118412,-0.08723270334461307,0.07028300506582913,0.024640048301260407,0.3740470322259276,-0.07741446033427658,-0.01602006770767546,0.013069311006232782,-0.0015820062573059014
264,45.117,-0.041961963067146134,-0.08472441586834412,0.06976445352822343,0.02376758573996593,0.37469549800416463,-0.07737704342873362,-0.010537073157067402,0.006669526833472565,0.0027209502937728855
265,45.1238,-0.041801710452120264,-0.08217583287426328,0.06923914821931985,0.023365536326427613,0.3748877355484209,-0.07712451801336949,-0.001521053472431369,-0.0009040050505011735,0.004852704419038703
266,45.1305,-0.04164386290906005,-0.07966526959108375,0.06872339571979838,0.02375313324381984,0.37453414002811336,-0.07683145199315403,0.013319228420652562,-0.009859191513505958,0.0040680171417628395
267,45.1373,-0.04147686249928488,-0.07712189937346951,0.06820130974605669,0.025364634337073838,0.3735159239754725,-0.0767232461660414,0.03501235369762499,-0.020678791345064867,-0.0008227454874879265
268,45.144,-0.04129623286995258,-0.07462530797826593,0.06768593813557945,0.02855465800096782,0.37173523877241876,-0.07711902561832405,0.062089701522027335,-0.03352400184195461,-0.011224500012704471
269,45.1508,-0.041084707558088664,-0.07210670022063737,0.0671570843268885,0.033658669017845366,0.36903174876557254,-0.07842621223199304,0.09098802745236224,-0.04755813320526807,-0.027980187732775136
270,45.1575,-0.040836283639504915,-0.06964611265922475,0.06662298355109597,0.04049772458922087,0.36547200090959936,-0.08100685516871084,0.11718796799797787,-0.06079806389467578,-0.050572750848635606
271,45.1643,-0.04053216174304928,-0.06717580088897666,0.06605766960356545,0.04894989201540013,0.3610902844576615,-0.08526195292854258,0.13630650727499236,-0.07061685689103717,-0.07704466601923292
272,45.171,-0.04017324214671304,-0.06477247474934447,0.06546641313818866,0.058190285995381945,0.35632050349201594,-0.09123251434805445,0.14496452423808479,-0.0745718888707752,-0.10469498413165718
273,45.1778,-0.03974508938953504,-0.06236601395522059,0.06481932225427338,0.06773699552759092,0.3514620830151788,-0.099088333862369,0.1413570784262322,-0.07114017376734184,-0.13091403130883886
274,45.1845,-0.039261881363518096,-0.06002566323745356,0.06412411131633856,0.07650420626846556,0.34715007154191985,-0.1084373192524354,0.12551059127708825,-0.060114393690197686,-0.15366244562075607
275,45.1913,-0.03871617213665024,-0.05767668780059882,0.06334986986148791,0.08399850751623762,0.34372505694493327,-0.11928075570369162,0.09925589364337427,-0.04260745672845318,-0.1715501412540816
276,45.198,-0.03813521887668331,-0.055380703460678006,0.06251159474357815,0.08942037605592508,0.34164340273270233,-0.13095062277675354,0.0657819348507301,-0.020756619391695662,-0.18367232613978993
277,45.2048,-0.037516441832115215,-0.05305957248578326,0.06157884414945719,0.09257287234649945,0.3410421781188584,-0.14338778725888904,0.028766640997865245,0.0027248992041009586,-0.18933879932814748
278,45.2115,-0.03689394814098134,-0.05077153848479854,0.06057662615324038,0.09324613993220963,0.341953046055467,-0.15578176385051085,-0.008272853749478276,0.0250012740150402,-0.18792504764921414
279,45.2183,-0.036265547549051015,-0.0484384928014337,0.05947568850674748,0.09157756357675498,0.34423686081671045,-0.16802342629453604,-0.04177050984608497,0.04349410655786645,-0.17922264846780026
280,45.225,-0.035664035437085656,-0.04612113307262324,0.05831216016789105,0.08797829074120501,0.34751231196230736,-0.17929846590130258,-0.06778879956705398,0.05620830054605102,-0.16398155120337732
281,45.2318,-0.03508284822613737,-0.04374466155992877,0.05705802411610598,0.08295912424362539,0.3514498976538821,-0.18956507874145365,-0.08274430199820532,0.061886404444822164,-0.14393114189873865
282,45.2385,-0.03454544787095045,-0.04137654741775925,0.055758735249512845,0.07745889223003206,0.3554498462770901,-0.19828234412204346,-0.08467885499879622,0.05986919144062782,-0.12141622650173288
283,45.2453,-0.03403669532721058,-0.03894704150761923,0.05438542537316301,0.07217420886996741,0.3591107155289689,-0.20563232539271156,-0.07381753625749515,0.04992633002214041,-0.09902186369786095
284,45.252,-0.03356700631979978,-0.036531945631494034,0.0529880791668797,0.06803146498395587,0.36181342659772425,-0.21148594513948557,-0.0522846460344388,0.03234227582275032,-0.07915816497053618
285,45.2588,-0.03311300543449118,-0.03406703019070901,0.05153379132905607,0.06549820716566537,0.3631617030451037,-0.2162457718675672,-0.02369194422922424,0.008094763970468872,-0.06359690813510117
286,45.2655,-0.03267596942994121,-0.031635291859414556,0.05007210479669697,0.06496030165518098,0.3627303361470373,-0.22007856614993376,0.007318482435464947,-0.02122526605107117,-0.053070628304810616
287,45.2723,-0.03222928079017241,-0.029177194656935964,0.04856419988052041,0.06641871004155549,0.36023942928801717,-0.2234228797844563,0.036421596291871236,-0.05348114892426328,-0.047230866824794854
288,45.279,-0.03177354054116486,-0.02677888213062097,0.04705712260614522,0.06962315533379082,0.3556747576714529,-0.226450933461725,0.061119443054162115,-0.08546421389153484,-0.04494093701035011
289,45.2858,-0.03128409210674142,-0.02438274983599319,0.045507122537892186,0.07433226655549104,0.3490700348662986,-0.22943143955398282,0.08011458816598978,-0.11262234277442047,-0.044449368435400344
290,45.2925,-0.030767136868850836,-0.022070708625911956,0.04396022410545308,0.0799827298298721,0.34109152038234153,-0.23232928654758375,0.09188150173630857,-0.13023797289054398,-0.04375903640359645
291,45.2993,-0.030201983103118786,-0.01978137572613642,0.04237072745421686,0.08623896597353858,0.332241685433451,-0.23516972852151713,0.09575336379045865,-0.1351832088610759,-0.04143051456230282
292,45.306,-0.029603323483658794,-0.017584219973235206,0.04078648045381069,0.09246539804450192,0.3236257034927688,-0.2377398238388845,0.09377480730720565,-0.1270811635462417,-0.036801361975610694
293,45.3128,-0.02895373543721922,-0.015410328416089848,0.039162335944767236,0.09858990973168998,0.31575416625535185,-0.23994973764409935,0.08990942398671913,-0.10899925239631982,-0.029477606743787063
294,45.3195,-0.02827363788362769,-0.01331638249147824,0.037549307760044746,0.10442428537040938,0.3093043187037996,-0.24155121301968727,0.08768482769716247,-0.08732952729199922,-0.01927016654496317
295,45.3263,-0.027543536520494794,-0.011230965534223588,0.03590381080416419,0.11031140966850483,0.3040536099000164,-0.24241847988597018,0.08887976331987933,-0.07014791085033552,-0.006740600646993949
296,45.333,-0.026784351797517314,-0.009208659252318193,0.03427956767212608,0.11631089569807458,0.29961990708711506,-0.24243021624516653,0.09374033142314699,-0.06481085457786415,0.006383354206580553
297,45.3398,-0.025971250852031197,-0.007187235034316962,0.032633716754916574,0.1228364412096645,0.29491662761927273,-0.24164358293421587,0.10197156730318212,-0.07624827270231745,0.017209079347686833
298,45.3465,-0.025124520640437013,-0.00523138288874986,0.03101903419024322,0.1299188458332947,0.2889198337438539,-0.2403512124905105,0.11361180050527231,-0.106289874779753,0.02212975929766883
299,45.3533,-0.024213550424421894,-0.0032961906713157682,0.029389172402667755,0.1380135706418046,0.28025434785454534,-0.23901990150238916,0.12916237969573424,-0.15360237388676123,0.01779845832301672
300,45.36,-0.023258224039413734,-0.0014589595636724374,0.02778995017973056,0.1471584845844206,0.26817284845672074,-0.23835986653841065,0.14920230727651804,-0.21414988918908562,0.0022925373158179775
301,45.3668,-0.022220894173617868,0.0003083512536591166,0.02616662909514485,0.1579385347673783,0.2516244507585673,-0.23908751128103126,0.17410922061407824,-0.28216391762320087,-0.024115806178716895
302,45.3735,-0.021121105618710202,0.0019245159536416033,0.024555619529977944,0.17035655624972962,0.2308127731166471,-0.24181086638057755,0.20388653576376667,-0.3513287722493217,-0.05878118930494271
303,45.3803,-0.0199125980778302,0.003407060727904288,0.02289363466327227,0.18508683812682653,0.20522980754895337,-0.24700821206238557,0.23789897164253543,-0.41594666202831587,-0.09709580058304965
304,45.387,-0.018616093010814797,0.0046843837799210595,0.021213299250174993,0.2019295997880956,0.1760606557395129,-0.2545844485635064,0.2747827339489168,-0.47194160719232225,-0.1335194589257758
305,45.3938,-0.017176365049691004,0.0057694335134530084,0.019448521539040427,0.2215198005425334,0.1430716188287841,-0.26446781941737296,0.3127597756039503,-0.5174541512901939,-0.16289917338491994
306,45.4005,-0.015619224719846515,0.006610232725431121,0.017638694038382287,0.24329820836612004,0.10791322056758704,-0.2757791957042868,0.3501594945617076,-0.5527425271953629,-0.1814110890287033
307,45.4073,-0.013881369135132883,0.0072157092485152004,0.01572166900452533,0.2678357871380123,0.07016810975130278,-0.28805169660671937,0.38576306134792787,-0.5792957510406046,-0.18666150344187818
308,45.414,-0.011998344704590862,0.007556230098458352,0.013751702264357261,0.2942610577997238,0.031479905157068125,-0.2999980765775899,0.418603414057103,-0.5983457258470251,-0.1769778202204377
309,45.4208,-0.009899316897894337,0.007633541504853341,0.011674723868073016,0.32310006181705003,-0.00874125621735996,-0.3108779223296879,0.4463259966079056,-0.607953402338734,-0.14932674178297486
310,45.4275,-0.007634767028057438,0.007442308988029523,0.00956490218958126,0.35288497395494184,-0.04834307716286617,-0.3189195936377982,0.46030557978378484,-0.5974979075588375,-0.0954560227637977
311,45.4343,-0.005133180441169239,0.006984159165774298,0.007385116836200825,0.3828757868947055,-0.08640687055929122,-0.322193745591896,0.4391684847771759,-0.544098188140756,-0.0027412075699578342
312,45.441,-0.002481008762921271,0.006299273890272157,0.005240584520191351,0.4088172513880161,-0.11803649526217773,-0.3179651547092341,0.3504712743933197,-0.41868512887208653,0.1314565114833798
313,45.4478,0.00035780092816206513,0.005426317961931145,0.003125343784392056,0.4261267754014015,-0.1387152483675937,-0.30416447346717895,0.1686699690003303,-0.20150486541513155,0.2824487359480133
314,45.4545,0.0032203136008810114,0.004485851710164332,0.0011627927364459261,0.4283546194398009,-0.14202094618957403,-0.2816716602478958,-0.1008559783752144,0.10088177095906879,0.40221652719168605
315,45.4613,0.006074688131503825,0.003582384640527661,-0.0006563902984654743,0.4111673013318169,-0.1237046625271579,-0.2533821735497037,-0.41462010786962766,0.44845385880778343,0.44623195054292814
316,45.468,0.008705915957153504,0.0028886169257961733,-0.0022611326059689537,0.37427384065291,-0.08339017769113022,-0.22564538092879327,-0.7083906386119551,0.7786904338828756,0.3980563220403514
317,45.4748,0.011066010994817497,0.0025264593305052924,-0.0037193789960844447,0.31987175866019635,-0.02312676210033096,-0.2032506161641015,-0.9232177445568103,1.0287090345694672,0.2735996990298996
318,45.4815,0.012994997171972646,0.0026116389688305886,-0.005039045710062317,0.25594501064027386,0.048553519809393444,-0.19067974621764433,-1.0226670733213354,1.1531878494373555,0.10904865606409615
319,45.4883,0.01450640661583335,0.003200908428962772,-0.006329520933883408,0.18858717873016412,0.1247610272881683,-0.18887179020001832,-0.9975056699058916,1.1324012954650258,-0.05482506596048495
320,45.495,0.01556518430085176,0.004268630245846793,-0.00762128296563274,0.12746586157407236,0.19396190312520822,-0.19672881629260477,-0.8629838245024325,0.9740242282171941,-0.1843372293352451
321,45.5018,0.0162601112079259,0.005778529605903847,-0.009009300164587472,0.07692440521227462,0.2501261439500387,-0.21151153634081166,-0.6528380131328666,0.710434211742524,-0.2590209855194109
322,45.5085,0.016658535230231433,0.007575540404976411,-0.010484950798527922,0.04200813875961413,0.28629499010186976,-0.2289811902089025,-0.4099883450301655,0.3905197830560958,-0.2727428737169472
323,45.5153,0.016877811243165394,0.009574318034749826,-0.012099132758559122,0.02248480622091044,0.3015807833604268,-0.24577820979989226,-0.17554867617747205,0.0679264291193991,-0.23102751471323996
324,45.522,0.017011258399938244,0.011579260170855733,-0.013787428345317371,0.017350165950118835,0.2969094065223763,-0.2581906220686147,0.019253872238980948,-0.2101198231102406,-0.14679750118502272
325,45.5288,0.01714914949590556,0.013527871525315153,-0.015563927754100298,0.02320603874616043,0.27621158008347335,-0.2643092040441368,0.1563734345628263,-0.4106422119826312,-0.036708888252504186
326,45.5355,0.017347239374718774,0.015276232882933076,-0.017329881945620997,0.0359252683622428,0.24568733263812756,-0.262841300887246,0.2307908835298325,-0.5184942061952562,0.08139081804840254
327,45.5423,0.017645828914877235,0.016827384685398655,-0.019086359072846688,0.0518951846255609,0.21053378573421086,-0.25376961888514094,0.24817330863514625,-0.5358187856168777,0.19068392361420997
328,45.549,0.018045171692580846,0.018126366145944334,-0.02073507100576974,0.06731161468891159,0.17722187413004684,-0.23838319691262688,0.22109187589721194,-0.4781721501455924,0.2776678359406373
329,45.5558,0.018546635492488788,0.01923544394588238,-0.022286748565204875,0.0801777382252244,0.14897747879298634,-0.2179925558625229,0.16478444081332472,-0.3689239631181053,0.33388120146551953
330,45.5625,0.019112276969882228,0.020167252798223508,-0.02367132839727707,0.08867046398171825,0.12917441742815683,-0.19531485669620874,0.09372810086635464,-0.23386716345822253,0.3564118586216196
331,45.5693,0.019728114365882402,0.02100811830531578,-0.02491968776492554,0.09245818190072971,0.1181389670108054,-0.1718496632004876,0.01987182184552596,-0.09710423972089545,0.3473480898565224
332,45.576,0.02034451258930183,0.02179135209117406,-0.02599844024459227,0.09154128777665248,0.11566216309606914,-0.1501660023715685,-0.047781427932255996,0.02171208723662806,0.31268714906754186
333,45.5828,0.02094988393262792,0.02259267118363437,-0.02695454777025312,0.08650910731929837,0.12001992292172539,-0.13104209341110246,-0.10314198380291775,0.10898433471886095,0.26087049865321643
334,45.5895,0.021502407620384443,0.023426166981291976,-0.027781688983784237,0.07842333678707382,0.12878479279688312,-0.11586573152348026,-0.1429831298127807,0.15781208069419264,0.2010871810728644
335,45.5963,0.022000569629452075,0.024338815142153268,-0.028530710638489252,0.06809490117403004,0.13964113686826696,-0.10443475515451843,-0.1667837304613932,0.1677876270487363,0.14174669932715786
336,45.603,0.022419042152290694,0.025308724874000915,-0.029204980685221704,0.056822269822532516,0.1498841562204897,-0.0968398856610741,-0.1763471636294018,0.14400260887081145,0.08943573523744408
337,45.6098,0.022765577328900027,0.026355079957806768,-0.02984786277347568,0.04509984094494325,0.1578673390166001,-0.09224308147249377,-0.17522785936946034,0.09542624196337113,0.04843002237965402
338,45.6165,0.02302996200941958,0.027426909136683594,-0.030458256803703634,0.03382095921012228,0.16208166960324524,-0.08996409172982295,-0.16809329195155107,0.0328549886649704,0.020940807166945772
339,45.6233,0.023222776339905986,0.028529041161125885,-0.03106675088717026,0.022889137991774867,0.1620748081739774,-0.08900475634863983,-0.1597701002169097,-0.03306077427287107,0.007831247005878561
340,45.63,0.023341616047963993,0.029601100384453384,-0.03166127555586396,0.012585401727021352,0.15794287043114336,-0.08846529400763112,-0.1538683154074016,-0.0927124766937546,0.008589603603597113
341,45.6368,0.02339247737035255,0.03064899020622299,-0.03225953291541049,0.0023738107402043844,0.15026001832469812,-0.08749275291786163,-0.15239418134433522,-0.13770896021376688,0.020578511603032822
342,45.6435,0.02337438762605505,0.03162273030093873,-0.03283916468791577,-0.007773734411097194,0.1404086666649815,-0.08553165678515197,-0.156489887691619,-0.16215918925360193,0.039115862180003444
343,45.6503,0.02328495143879698,0.032540467393154325,-0.033409646365720094,-0.018531026547165833,0.1295140075161419,-0.08225707198086699,-0.16613908874637515,-0.16458965100941964,0.059094350046507
344,45.657,0.023122804297240392,0.033373797665482416,-0.033945775645147606,-0.029871105260806344,0.11924129765660756,-0.0777815188931358,-0.1790448551567196,-0.14810434287097216,0.0771383080312929
345,45.6638,0.02287775263308465,0.034154387635921234,-0.03445548667927462,-0.042202913608472004,0.11034398776638935,-0.07213349114410125,-0.19080646565037201,-0.11874069086247128,0.09225538217562243
346,45.6705,0.022552384585306742,0.034871400593921034,-0.034917107408330296,-0.05492187677306479,0.10368973103967914,-0.06566374140993236,-0.1963497418485509,-0.08381015897480788,0.10467920581979656
347,45.6773,0.022134979961667536,0.03556124569930426,-0.03533873883293251,-0.06784418900307317,0.09920588819051795,-0.05834550112002963,-0.1912117666835642,-0.05066770131140198,0.11480691988832417
348,45.684,0.021640377214392,0.03621755971166888,-0.03570347482001677,-0.07979842212406162,0.0967087423662301,-0.05053091293505288,-0.1726666012925159,-0.025343644455712456,0.12306359563324169
349,45.6908,0.021062188643954205,0.03687101248973481,-0.036018430520274015,-0.09025703976927085,0.09548325118241734,-0.042103116552298814,-0.14100463335890526,-0.01141086227941674,0.12969995175393914
350,45.6975,0.020430944388684407,0.03750842210425397,-0.03627150121277345,-0.09817408120692768,0.09478827553986205,-0.03344037374609586,-0.09998448642625067,-0.009743702805326692,0.13398778819679533
351,45.7043,0.019745698651469447,0.03814974297014135,-0.03646852558256276,-0.10336878267966323,0.09383550854450791,-0.024507970309536983,-0.055813199259764454,-0.018831354616794155,0.13390975901236726
352,45.711,0.01904531196577681,0.038772490898076745,-0.0366039933242802,-0.10570186976605386,0.09205939531694235,-0.015930161546446595,-0.015204315017361697,-0.03523227088274297,0.12719264897431604
353,45.7178,0.018326699239778674,0.039388335664840714,-0.036685116638166974,-0.10565481435109608,0.08907141843721077,-0.007929636655552139,0.016615584709740092,-0.0543820958309697,0.11275631995452255
354,45.7245,0.01762473524199332,0.03997123143040204,-0.03671579047147649,-0.10388667752506157,0.08492731755119104,-0.0012267314965380355,0.037205244790861035,-0.0717613925776618,0.0912753536185487
355,45.7313,0.016927856309877736,0.040531089356233126,-0.036706445871044296,-0.10107771427368932,0.07973677828151954,0.003975143388359464,0.04704020724102644,-0.08391146175715915,0.06473747455833224
356,45.738,0.016261154522921723,0.041046303571030486,-0.036668754917110795,-0.0979377445190869,0.07405850971764419,0.007275887636562519,0.048538242520984806,-0.08893100141372859,0.035734836629286226
357,45.7448,0.015605747410865303,0.04153001168146484,-0.03661443412043095,-0.09482905314461251,0.06820858158661308,0.008700817269277246,0.04469655147010177,-0.08651801505596357,0.007001158924603232
358,45.7515,0.014979506288920702,0.041968929761477765,-0.036557438138100445,-0.09210859519699972,0.06281174080526251,0.0083129087995248,0.03811225676585426,-0.07775798624558519,-0.018808817305436088
359,45.7583,0.014360955005444213,0.04237989100432533,-0.036507498112196064,-0.08981825288436439,0.05805921297346139,0.0063753341135319545,0.03057889586544503,-0.06477818089316828,-0.03930225096406386
360,45.765,0.01376508209410911,0.04275622329935566,-0.03647490424436402,-0.08805425796187748,0.05427878554301906,0.00335417867215124,0.023115857032169118,-0.05029534575779563,-0.05265957546881422
361,45.7718,0.013170772053196618,0.04311541598618479,-0.036464643118549314,-0.0867428128947802,0.05136612234792725,-0.0003362004913556138,0.016216548772223414,-0.037060239035731704,-0.058020997033090764
362,45.7785,0.01259248238146792,0.04345248841472229,-0.03647941102951036,-0.08588096971074595,0.049252513036368066,-0.004072131138806714,0.010017345789088906,-0.02727652761791989,-0.05569807913902251
363,45.7853,0.012010116615442604,0.04378179888739375,-0.036518751336860444,-0.08540307912027047,0.04760350833761457,-0.007498547493573009,0.004315383126721581,-0.022179849634907486,-0.04706581231299999
364,45.792,0.01143823880895935,0.04409588793432354,-0.03657793644024934,-0.08530671385975044,0.04615441611900818,-0.010168647547883753,-0.0013820930216444957,-0.021929488556513874,-0.03421013740798627
365,45.7988,0.010857122428818262,0.04440432940535266,-0.03665316693864253,-0.08560986853472831,0.04456366359546051,-0.011957969626589493,-0.007710016893504273,-0.025779809652236224,-0.019454590059544606
366,45.8055,0.010281007476450145,0.04469650423736025,-0.03673596190157875,-0.0863647441124159,0.04265270416797097,-0.012756944682719517,-0.015267859684074127,-0.032388438423987004,-0.00486564332852926
367,45.8123,0.009689219259540315,0.044978318507063436,-0.03682234244460441,-0.08769061380228171,0.0402338457447506,-0.01264909738365781,-0.02449716440570553,-0.040157124842384644,0.008100162133797748
368,45.819,0.009095072926398539,0.045238230917438595,-0.03690414848972644,-0.08966650056834086,0.037351948397062434,-0.011770617578134697,-0.03564742575424632,-0.047565784100145725,0.018640139372629948
369,45.8258,0.008475774430865893,0.04548077216186398,-0.036979086057923403,-0.09248011576483403,0.033983711728068744,-0.0102698436562713,-0.04873754580298492,-0.053453202385750395,0.026370551807927235
370,45.8325,0.007843809488378192,0.045696291651191726,-0.03704157360748706,-0.09616613572397173,0.030350464190639213,-0.008383156213471141,-0.06346228445647029,-0.0571402728285134,0.0310588742889257
371,45.8393,0.007173708986633803,0.04588958888578786,-0.037091365152623734,-0.10092224714207251,0.026501663631767945,-0.006261415885554553,-0.07918136036023504,-0.0582916192420892,0.03257562606713819
372,45.846,0.006478351477639585,0.046054506405665795,-0.037126307989034366,-0.10664715852799682,0.022727446779590797,-0.004169281550463458,-0.09508087719478804,-0.05659286181649007,0.03110745755142196
373,45.8528,0.005729871386211914,0.04619679025938118,-0.03714802304604695,-0.11349404483290586,0.019120745489605545,-0.002217499923821903,-0.11026856320305514,-0.051578072911845615,0.027429700356731767
374,45.8595,0.004943730637999417,0.04631450418220782,-0.037157334419273984,-0.12117483523069988,0.016017738936283398,-0.0005620144723079215,-0.12352924268117023,-0.04287524324939898,0.022962101292794856
375,45.8663,0.0040906721373030535,0.04641508232589377,-0.037156341593319424,-0.12972472379744054,0.013564068030149382,0.0008540221060008247,-0.13289605116156678,-0.03071440393575069,0.01950717685632447
376,45.873,0.0031919659618385656,0.046500799773731304,-0.037146392326268346,-0.13854577634141102,0.012023229831821483,0.0021159083570091207,-0.1356105247973455,-0.016187616733258893,0.01890374460899038
377,45.8798,0.002219852193501854,0.046580624030430166,-0.037127272924634976,-0.147370037875039,0.011454492726648887,0.0035074450645660163,-0.12904366794943956,-0.0008697493569223473,0.02283074191008467
378,45.8865,0.0012059096798292,0.046658807944889344,-0.037097675456545194,-0.15529936919164883,0.011883989201481978,0.005327620036867704,-0.11231954702449068,0.013943317082429633,0.032574091812722965
379,45.8933,0.00012722648717038848,0.046744341736755644,-0.03705224152256515,-0.16196039335480528,0.013273008406232535,0.008035301721958916,-0.08745558045206521,0.027715665365238385,0.04863375859517956
380,45.9,-0.0009740440594667103,0.046840786320382334,-0.03698529199252742,-0.16677708325352714,0.015516419542054564,0.011949632617677508,-0.05916103992457142,0.04057217665191518,0.07051569445937621
381,45.9068,-0.002118624794556152,0.046956881673826015,-0.03688506601083152,-0.1698643094199192,0.01862927264727155,0.017528597292888668,-0.03342997698720602,0.05278743452482646,0.09680667998019235
382,45.9135,-0.0032621238750328036,0.04709459416548279,-0.03674318476249156,-0.1714786996774793,0.022478933817424572,0.02482401415186003,-0.015710916138380104,0.06439351800279619,0.12526062902050084
383,45.9203,-0.0044310783440199,0.04726331134712986,-0.03654284468945164,-0.17233143825998476,0.02714376666702066,0.03409953674224848,-0.009864123803173886,0.07551253163150694,0.15292762889904069
384,45.927,-0.0055888108907425245,0.04746304473129736,-0.03627813166945577,-0.1732603667317326,0.03247813905460066,0.044919275196792015,-0.01841179928153545,0.08686197611999653,0.17641752698977303
385,45.9338,-0.006773869967261582,0.047704965591959775,-0.03593089945752801,-0.1752864204798386,0.03867505525789199,0.05720784595845508,-0.04235290234519716,0.09899378632010108,0.1921370271277967
386,45.9405,-0.007961545192813562,0.04798715281640826,-0.035504857747169924,-0.17924349759526575,0.04555993711476268,0.06996878399914139,-0.0780977152847639,0.11057712872128327,0.1962968657943061
387,45.9473,-0.00920215411931715,0.04832286865171106,-0.03498582623796473,-0.18564148078823048,0.05318001444490722,0.08268754223771652,-0.11378837860429475,0.1179615888580056,0.18515972199465822
388,45.954,-0.01047297461283277,0.048704947996679494,-0.03439422615542269,-0.19370792026108644,0.06087352136652911,0.09390949732701581,-0.13174831129044332,0.11622329898179261,0.1564286226580282
389,45.9608,-0.011818279231356057,0.049143337920272534,-0.033725379347989755,-0.201969908716446,0.06806469145498371,0.1028101519180127,-0.1160423822203987,0.099451781297056,0.11051672418191723
390,45.9675,-0.013190421725371264,0.04961694689607134,-0.03301888231213938,-0.2076248656163201,0.0733111222162555,0.10808448564919573,-0.05609049045097998,0.060245845793489405,0.050030249499933205
391,45.9743,-0.01460243859054713,0.05012116745449321,-0.03228063232891582,-0.20767421237668168,0.07498904202550764,0.1090478623577861,0.054610499521607875,-0.009922256570793818,-0.021136989236546333
392,45.981,-0.015963780977329766,0.050609371158953156,-0.03156312597733715,-0.19869664934934778,0.07074340706696693,0.10513313811338909,0.21866014441871018,-0.11931185691005541,-0.0980244370723528
393,45.9878,-0.0172411320083051,0.05104590915537438,-0.03087916498177986,-0.17699483034936955,0.05765012129224702,0.0960318605799815,0.43221328750468935,-0.27337743090283817,-0.17493792350499202
394,45.9945,-0.0183044550554522,0.05135021262382816,-0.03028205653849902,-0.1404150344705588,0.03318673496258351,0.08220946577245027,0.6812497251829096,-0.4712706784909677,-0.24580595970148622
395,46.0013,-0.01907555312515362,0.05144272541076041,-0.02978538572909259,-0.08637851544167813,-0.005977091747209659,0.06387018405300561,0.939394820306891,-0.7033172349867893,-0.30421941981886536
396,46.008,-0.019421979518987484,0.05122064355869909,-0.02942874684235624,-0.017032348389293475,-0.06031599842032918,0.042589185121989906,1.1714532648026548,-0.9507205002387848,-0.34355907684727527
397,46.0148,-0.019252738807447642,0.05056832234024318,-0.029218491045028206,0.06680902825396533,-0.13154318347851482,0.01925075526862293,1.3430882375955975,-1.1855005411914685,-0.35639902041543436
398,46.0215,-0.018500235747807105,0.04940596502593454,-0.02916510199886887,0.15781875074313775,-0.21542914915081696,-0.0033137265643481753,1.4271830925775768,-1.3679286897735756,-0.33044778443588435
399,46.0283,-0.01710685612940216,0.04762209826053244,-0.029252962619035847,0.2519987840819445,-0.3092375465558105,-0.022527632308299236,1.3974318172578983,-1.4455402439726466,-0.245809015615332
400,46.035,-0.015130199245117805,0.04524116387358612,-0.029440764037037707,0.33804804704815006,-0.40148913611525777,-0.0335324924684173,1.221846647264667,-1.3625326380220806,-0.08917111354393889
401,46.0418,-0.012593410214854427,0.042234029916136104,-0.029665438424021813,0.4080663736169495,-0.48296202783991793,-0.032548209585677945,0.8781187294332915,-1.080974085794521,0.11869138453467921
402,46.0485,-0.009720433203804996,0.03881257931690999,-0.02983554294970253,0.44953870430888826,-0.5383665092432594,-0.01822926076681239,0.384269568972183,-0.6054989875984089,0.3171672501939526
403,46.0553,-0.006641342534345904,0.03508344586425974,-0.029873840222329754,0.4560761984724693,-0.5584374474176983,0.006965357052932247,-0.1881993104178662,0.003538368006157128,0.4384609930576818
404,46.062,-0.0036872717318590085,0.03141284760508166,-0.02972976088814975,0.42573598137501756,-0.5372635254720919,0.03604339941874322,-0.7353353546437628,0.6409807812559322,0.44665396939301855
405,46.0688,-0.0010068089886766337,0.027966706986818343,-0.02939456939364786,0.3626354136779881,-0.4763072446045393,0.06254233425820364,-1.1571549962009573,1.1871988623743528,0.34809289773703284
406,46.0755,0.0011429330577890726,0.025075834321692865,-0.02891769765797989,0.279078630043593,-0.3866398196126598,0.07980743758308702,-1.386254167272015,1.5422138850963767,0.1774445882073177
407,46.0823,0.002724506648472438,0.02280879840987913,-0.0283571403315152,0.18609007309868517,-0.280135448568011,0.08506236431833201,-1.402626395615241,1.6520282886469058,-0.019840647326676772
408,46.089,0.0036811545597597905,0.02128094497128313,-0.027811582226266993,0.09947646758401504,-0.17594020474408145,0.07779080142734908,-1.2338302553625293,1.5196009484401154,-0.20150056382620601
409,46.0958,0.004111055423749088,0.020392539700892588,-0.027343771047147546,0.026964963001102737,-0.0853554630179059,0.059800721843109264,-0.9409096520091419,1.1971852217546401,-0.33805166631546985
410,46.1025,0.004122468780174368,0.020036719186586067,-0.027026118393527032,-0.02355799093385618,-0.02085961587952917,0.03502096580477492,-0.5969731914236375,0.7660225691924575,-0.4162265123686837
411,46.1093,0.0038641979378004963,0.020017304559067483,-0.026884722316884845,-0.052404021529065384,0.015149431315238417,0.006566115560584604,-0.2681669579292822,0.3139482907605053,-0.43718149150975205
412,46.116,0.003483332151525785,0.020144227206925033,-0.02693416658836471,-0.061287257955886645,0.02273792625416783,-0.02132559958442069,-0.0022324512690119706,-0.08295989310901884,-0.4118225127026302
413,46.1228,0.003086250436653247,0.020247182611014457,-0.027166105923364454,-0.05550148171253497,0.007543074948611107,-0.04689185188610842,0.17575744656341372,-0.37275881954006246,-0.354951663095062
414,46.1295,0.0027625769819540178,0.020198148044466308,-0.027550197355264157,-0.041117459988696474,-0.0221802589928302,-0.0677623068898858,0.2620819611864411,-0.5319983602759115,-0.28033016793691723
415,46.1363,0.002543101805340018,0.019923298250212603,-0.02806532866699062,-0.02343406254484843,-0.05865791578769124,-0.0837469024414633,0.26827236452028375,-0.5620268763468308,-0.1990742803525644
416,46.143,0.0024391229089973402,0.01941536554332956,-0.02866164358845193,-0.00760441397534397,-0.09296378775943746,-0.09425755172603456,0.21357089792931006,-0.4822195072329749,-0.12086242067426371
417,46.1498,0.002425358095164671,0.01869178916609186,-0.029322471547241907,0.003555939318675599,-0.11985279378111356,-0.10010361262400594,0.12114654902587002,-0.32422623956616814,-0.05447061108218211
418,46.1565,0.00246436349350697,0.01783921195834497,-0.029999800184265443,0.00808746317155907,-0.1346478652477274,-0.10208404021877539,0.016789819400398677,-0.12612523048363572,-0.005812198679448891
419,46.1633,0.00251271775700937,0.01691770845726917,-0.03069182731313578,0.0061343790350325954,-0.13638257624522004,-0.10145335062549041,-0.07536604173353173,0.07409837963143615,0.024727622315604835
420,46.17,0.00253023811208855,0.01603894174192218,-0.03136413346630924,-0.0009044222949804587,-0.12593584624633464,-0.09923505330682132,-0.13889007277818807,0.2438926637256662,0.042795772939666854
421,46.1768,0.0024893251922819977,0.01525104167369553,-0.03202752055151509,-0.011128789412831958,-0.10579946793803052,-0.09587879528318147,-0.16775560126634415,0.36003061367550204,0.05786395416749902
422,46.1835,0.00237816927708573,0.014627128880142117,-0.03265481478455666,-0.022052080794998492,-0.08044315700322721,-0.0913732145799148,-0.16474163221048357,0.41179748666838367,0.07928272320563655
423,46.1903,0.0021938291668478225,0.01417248455029253,-0.03325451885492531,-0.03216559868675209,-0.05327576354080109,-0.08501033552855265,-0.13857949027380992,0.40299755974318,0.1115505394382803
424,46.197,0.001951773229075879,0.013898526993992369,-0.03379512509052588,-0.04008990512574514,-0.0285026114741459,-0.07636466017305892,-0.10263077099317548,0.3510795987322787,0.15161767943150614
425,46.2038,0.00165933570739696,0.013776488555279468,-0.0342755932272398,-0.04592113066219294,-0.007391046970833565,-0.06494949768401202,-0.07225732374353543,0.2820911249548418,0.1907419165644173
426,46.2105,0.0013374718760972826,0.013782572963869859,-0.03466564498169429,-0.05015762494962023,0.009207288341098768,-0.051483861854604365,-0.056698554199049546,0.22315041612026357,0.21914247666839098
427,46.2173,0.0009842143945948986,0.01389266316115642,-0.034964839109945925,-0.05374163431581186,0.023172181449074028,-0.036514411160604145,-0.05079181221775151,0.1956798166653109,0.22981609898012087
428,46.224,0.0006146512514719753,0.014092644504540864,-0.03515998888289052,-0.05657572184036624,0.03652374194931171,-0.02173925240498934,-0.03547579965653868,0.21073220454836497,0.21992924228657632
429,46.2308,0.00022743706606556305,0.014395148597276737,-0.03526128804625964,-0.057310803279075194,0.05244805003175594,-0.008054619174138746,0.013429491982713343,0.2668641228666582,0.1904955334235313
430,46.2375,-0.0001425187100681712,0.014814621623847848,-0.035278282772080366,-0.05312375676092719,0.07276777879553425,0.0029815666903356876,0.11402123097404662,0.35165399246928275,0.1454381279332072
431,46.2443,-0.0004604636257029296,0.015399917857320557,-0.035231249608658095,-0.0403894537198089,0.09937817222571232,0.010851716669143807,0.2679015711433657,0.4464357020734262,0.09060068183008942
432,46.251,-0.0006514947945229873,0.016173372969861516,-0.0351449647959053,-0.01663477577875797,0.13150395092101286,0.01490494385409744,0.45517395812758077,0.5314501901702482,0.03277667564403495
433,46.2578,-0.0006403717128922448,0.017194650866411164,-0.03504234698680104,0.019906270376032546,0.16887190100511212,0.01527676470595607,0.6407524302013814,0.5892764141378491,-0.0216251535568819
434,46.2645,-0.0003496407924759246,0.01845771132672952,-0.034949855871909734,0.06687907900203771,0.208161072224527,0.012332523321318883,0.7890665108458539,0.6066580600989512,-0.06799546360244185
435,46.2713,0.0002939072122550451,0.02000721546323703,-0.03488549002654915,0.1223997459188813,0.24757543851308528,0.006598607667092646,0.876090083579626,0.5754439495687907,-0.10397414688178892
436,46.278,0.0013085952503234372,0.021783556775176256,-0.034866901959098195,0.1804922057432282,0.2826756993790511,-0.0010499308160623862,0.8922031443199698,0.49298306788698787,-0.12884193362138413
437,46.2848,0.0027321648055778614,0.02380268277561242,-0.034904827987451814,0.23820472227287975,0.3111848889846692,-0.010104783405592944,0.8386906438287522,0.36205466328117536,-0.14272806613366615
438,46.2915,0.004500052225002083,0.02594840350449119,-0.03500431842509767,0.28952286561477847,0.3293287614266981,-0.019593854697638753,0.7233972005187905,0.19023193060940277,-0.14611252618273463
439,46.2983,0.006614076402288989,0.02820812934783055,-0.0351699425180226,0.3322489512344614,0.3352964866144508,-0.029119113809704618,0.5580287472307475,-0.011249985652061326,-0.13956574291701973
440,46.305,0.008940806648353757,0.030428184952995464,-0.03539400237440374,0.36229739087420165,0.3274066791062066,-0.03776442540852341,0.3566244191967738,-0.22891015265925177,-0.12359140345787055
441,46.3118,0.01146005521782124,0.03257773938626357,-0.03567597321808537,0.37865807073406,0.30481521303162484,-0.04516817567432968,0.13405941928684406,-0.4486452659053761,-0.09845930780342706
442,46.3185,0.01400128585302918,0.03449827188852631,-0.03599649116851505,0.37991823828299226,0.2684780712257262,-0.050508824453901355,-0.09570081389238189,-0.6574315291018189,-0.06410624886368563
443,46.3253,0.01653750246808666,0.03615362813892807,-0.036349529202015465,0.3660278249693869,0.218391414186673,-0.053325891281540326,-0.3208956467208902,-0.8447501249158261,-0.02038224281826884
444,46.332,0.018895992141426694,0.03741345687267059,-0.036705495817495354,0.33799894319159224,0.15767686454231838,-0.05293279990645162,-0.5322836123970104,-1.0033576552627363,0.03234766515736175
445,46.3388,0.021052073320223897,0.03824388779116538,-0.037051253567618576,0.2961425799842086,0.08656752325032473,-0.04876065601216717,-0.7230579222757006,-1.129329056785624,0.09278182813321915
446,46.3455,0.022858784657215726,0.03856515785831823,-0.03735024944862704,0.2431742370281043,0.009333989332584933,-0.04049184578137614,-0.8892608265869107,-1.2216048751986972,0.15891488393760678
447,46.3523,0.024294743607040606,0.03834488544929115,-0.037581665663552845,0.17916663056755,-0.07411999198762498,-0.02757174684387726,-1.0304331164058462,-1.281318000971765,0.22858024429326632
448,46.359,0.02525530884435865,0.03756297524850747,-0.037708266972871225,0.107569261169087,-0.15928603809698078,-0.010219688773537895,-1.1489399696287534,-1.3110759695628047,0.2996040823590884
449,46.3658,0.0257151382119575,0.036182219109357615,-0.0377019041334299,0.027674670477665975,-0.2468187087118972,0.01209111213863319,-1.2472308967623376,-1.3141735419462677,0.3695337239547082
450,46.3725,0.025617490346786793,0.03424152366857012,-0.03753231409202441,-0.056823286946523485,-0.33249336316478206,0.03853278081821273,-1.3248269285790673,-1.2937021054226983,0.4353318954706441
451,46.3793,0.02492477984712232,0.03169199341298868,-0.037165039563666305,-0.1469150953077823,-0.41736847671229294,0.06948913928713848,-1.3771753550238208,-1.2518428758349565,0.4931004758684085
452,46.386,0.023635189153300047,0.028626927599887324,-0.03658598104693112,-0.23803735060919046,-0.49757654212363883,0.1033641492904719,-1.3965213940487191,-1.1896336827178007,0.5380307753309201
453,46.3928,0.021702440869249693,0.02498303896336245,-0.03575805074377736,-0.3304180270528156,-0.5741554097956989,0.1401447634018692,-1.3741278275823223,-1.1070931683618994,0.5650806521010109
454,46.3995,0.01919397701408587,0.020903911282653863,-0.03469414430553275,-0.4183771535928617,-0.6434946441467729,0.17743924801433125,-1.3032855280067361,-1.0035438902423865,0.5701369781667864
455,46.4063,0.01606724802849116,0.016314814139137997,-0.03336047513735601,-0.5012490186410975,-0.7062398098288064,0.21481638968480435,-1.1821787187410668,-0.8782873665802969,0.5508652970144935
456,46.413,0.01246717276489549,0.01140571299949465,-0.031804874026326806,-0.5734003137763157,-0.7591635154389482,0.24954215092127066,-1.014055473401976,-0.7326726531681362,0.5061622176377862
457,46.4198,0.008362512278024495,0.006095496892999037,-0.03000169704397026,-0.6338527705965354,-0.8026647511761525,0.2808040203596399,-0.7990136540649828,-0.572001328177934,0.4314329327821755
458,46.4265,0.003971836530466068,0.000610804153367321,-0.028038921824732155,-0.6767967062875467,-0.8345569621479592,0.30509903015963025,-0.5081692555839167,-0.3987749284097642,0.3080899146066642
459,46.4333,-0.0006940106236706326,-0.005131520462812771,-0.02591824160239933,-0.695511280222144,-0.8543620426095334,0.3186304469965816,-0.05311175794748434,-0.19521217882504363,0.0977396481342387
460,46.44,-0.005284512385246429,-0.01086797290642593,-0.023798808060415278,-0.6747877530850778,-0.8580118211568553,0.31403628195434957,0.6839212090451012,0.0841155114075543,-0.23758276988539961
461,46.4468,-0.009599240530757296,-0.016638188344195462,-0.021768606877875823,-0.594249936770039,-0.8391103664210541,0.2830817129097156,1.731541057255408,0.48277036632625314,-0.6907959336596752
462,46.4535,-0.013067424977094079,-0.022098332544902496,-0.020078320640629456,-0.44102900243573684,-0.7907834248359826,0.22148134298509617,2.9323953877723534,0.988267420478854,-1.184275586866262
463,46.4603,-0.01528222922709871,-0.027192394312142737,-0.018887656850592332,-0.21038401227166417,-0.7074700361173896,0.1287138893788479,3.985029197889303,1.510438851124153,-1.5979737213393825
464,46.467,-0.015747923663601997,-0.03155451186498358,-0.01840216398708556,0.07137074764386195,-0.5946546065212499,0.016209353458948278,4.591385631050207,1.9235827200166433,-1.8265844670499476
465,46.4738,-0.014221999169635648,-0.035138288470678104,-0.018705101139293735,0.3774305741110542,-0.4593973363303342,-0.10530851587313884,4.58785458041692,2.133006436949423,-1.8179373424939476
466,46.4805,-0.010749704735191249,-0.03774913502166521,-0.019784513368399998,0.6590752272152998,-0.31995984306855063,-0.21690408983012038,3.9852086753696936,2.111371848901195,-1.578952689162025
467,46.4873,-0.005483834670600242,-0.039470950567357714,-0.02157035609553765,0.889710085900075,-0.1864564938999558,-0.30834377109284483,2.931912050477227,1.8926143168076974,-1.1634745312249348
468,46.494,0.0009812291650787763,-0.04034200865270512,-0.023836201121108652,1.0401597157945353,-0.07356084500963425,-0.36802787833111783,1.6476678551902575,1.5438490726874559,-0.6532673137888194
469,46.5008,0.008281659201074577,-0.04053827285581421,-0.026428401129989756,1.1070255889106289,0.015836079389298027,-0.3943838889870369,0.35775023043980037,1.1373124920177011,-0.13719302077783352
470,46.5075,0.015655048672955425,-0.04022630616809181,-0.029052087008900666,1.0939861937396647,0.07728830500541892,-0.3888059256129837,-0.7546601606861917,0.7332496209469536,0.3069822651932755
471,46.5143,0.02283043729093711,-0.03957520465114048,-0.031590247954228295,1.0164222233142801,0.11421214115678352,-0.35771199948355786,-1.5716115506586394,0.37415727225587264,0.6255759877279374
472,46.521,0.029242571517792124,-0.0387594347728981,-0.03383052657482241,0.8976476951492897,0.1293012553333991,-0.311027887260741,-2.04380074959824,0.08514464909830806,0.7954552397966052
473,46.5278,0.03486750658846599,-0.03788461603665849,-0.03576200901606221,0.7567449726963633,0.12799837297242997,-0.25705518369227803,-2.1821048544609565,-0.12422024518899943,0.8232753745277067
474,46.5345,0.03947276792395978,-0.03706903910745284,-0.037312372304879105,0.6179599035700001,0.11545742679037281,-0.20573982789470482,-2.042414103967991,-0.25751725176393303,0.7387276189498917
475,46.5413,0.04324987041177878,-0.036350261827226255,-0.03856140647920247,0.49295259284761955,0.09594765562926341,-0.16162316455343198,-1.706761822044118,-0.32761304130892754,0.5844040537441012
476,46.548,0.046225648442017764,-0.03578215922421918,-0.03953538085063965,0.39533935647716506,0.07363521093995863,-0.1291154537859316,-1.2645157817817718,-0.35156193185077583,0.40510757958147203
477,46.5548,0.04868019025335889,-0.0353605304094479,-0.04034031505739077,0.32658470568216236,0.050373263992799865,-0.10762990114092395,-0.7975498691981388,-0.3461023166038103,0.2392796667982449
478,46.5615,0.05073972450333324,-0.03509692497007303,-0.04102254206434688,0.2882016375935671,0.028314926865345286,-0.09601995168172929,-0.3708034691231672,-0.3253378028048824,0.11411895097463065
479,46.5683,0.05265432245329252,-0.03497532525727754,-0.04165755074871851,0.27491540651223667,0.007449694545100548,-0.09074730842762084,-0.02767256743586711,-0.30044501144540464,0.04401633759785114
480,46.575,0.05451638728489808,-0.03498928522969815,-0.04225728506460751,0.28092484172804966,-0.011616850491550895,-0.08827786049441182,0.21059550834342064,-0.27992708107223985,0.031151904031918243
481,46.5818,0.05648934840010077,-0.035130549547296594,-0.042846366222711554,0.299357839214058,-0.029931478213883506,-0.08498130365387803,0.3422405619585973,-0.26935888431370375,0.06771728588856425
482,46.5885,0.05857453647577549,-0.03539054846826731,-0.04339295211789797,0.3230863624796897,-0.04768013998630434,-0.07817866505843223,0.3800388375632199,-0.2708977774174392,0.13935020267272724
483,46.5953,0.06085377167354942,-0.03577747835806036,-0.04388276825378061,0.3472769309833906,-0.06612276877638583,-0.06588490431885125,0.3454763066833375,-0.28222715161738815,0.22936000746331012
484,46.602,0.06324723536775825,-0.036283866408137515,-0.044263304543318636,0.3671898434078358,-0.08503784318705465,-0.047708017931389346,0.26065860814745173,-0.29353428259924447,0.32393150748494115
485,46.6088,0.06578918151913782,-0.03692764641698724,-0.04450385986173166,0.38044137758555285,-0.10430921823918184,-0.023043546307677864,0.13677681090661808,-0.2844461170188924,0.41579677484483596
486,46.6155,0.06834969793007051,-0.037682693787929794,-0.04455735501241654,0.38389187940984687,-0.12107805666921109,0.0070748446106868,-0.03174598543959926,-0.22598541790411733,0.5009856588353542
487,46.6223,0.0709272568838321,-0.03854194711728005,-0.04438775044764738,0.3742136952253065,-0.13164351078654268,0.042808850909614074,-0.25851875941788455,-0.09089001918143494,0.57073626991883
488,46.629,0.07334603877577982,-0.03941966444633278,-0.04397120932438029,0.34781075013275664,-0.13036166206521493,0.08153178290154953,-0.5451681415152215,0.12990858406871583,0.6079622842975135
489,46.6358,0.07555156183047278,-0.04024433322235458,-0.04328067973149919,0.3008725012470045,-0.11218797794100127,0.12156515618096318,-0.8625875466481941,0.4151502497837944,0.5927047684431528
490,46.6425,0.07734558296150267,-0.04087159603667026,-0.04234444371890886,0.23465619458320836,-0.07505465319814547,0.15790828041337207,-1.1529898106246805,0.7151617884876248,0.5135541273803034
491,46.6493,0.07865697533407733,-0.04119133415705175,-0.04116978650267853,0.15104744440942972,-0.01898597044349242,0.1875791361250424,-1.3545748393471952,0.9664307069608883,0.3763238909175286
492,46.656,0.07936304987300127,-0.041089868572489446,-0.03984928491588106,0.05972107467227894,0.04927420464118435,0.2066004420233309,-1.4253350082157779,1.1113605537714881,0.2026711543508666
493,46.6628,0.07945419544359451,-0.04050239266377198,-0.03841890903145139,-0.03291355390955604,0.1235128273345826,0.2140983475149082,-1.3529306579050593,1.1151784812175578,0.022203427800294273
494,46.6695,0.07895773342943016,-0.03944491254943024,-0.03699691349357807,-0.11528406225885908,0.19215287843896872,0.21037793244714273,-1.1543691282140809,0.9741759358198643,-0.13545022074377494
495,46.6763,0.07794441500982557,-0.03794681044087148,-0.035609734855578445,-0.18275076703667797,0.24846538878430252,0.19761578461166862,-0.8690688923198582,0.7147293521989011,-0.2473076927932036
496,46.683,0.07656399972229987,-0.036161046202898464,-0.03434611786574979,-0.2293134978962384,0.2845985628492623,0.17958331682960044,-0.5482675726952536,0.38513880960352526,-0.30158782235220416
497,46.6898,0.07491490789400927,-0.03417724886782324,-0.033193008582486666,-0.2557135104246414,0.29887124158476863,0.15956647236551608,-0.24351245077649547,0.04292242302072783,-0.29875043743277324
498,46.6965,0.07317524737058236,-0.03219852653739833,-0.032184247118462614,-0.2635881383593459,0.2917921406314315,0.1415563527161935,0.0038143679053163283,-0.25840522945126676,-0.2494648164203827
499,46.7033,0.07140246165003492,-0.030297980688217273,-0.031269293922184915,-0.25781942650767514,0.2671919326572495,0.12754752854201862,0.1691988380696255,-0.4793956797813314,-0.17068298167275495
500,46.71,0.0697208089583113,-0.028626574014675634,-0.030442426598561084,-0.24416645161861442,0.2317354325789006,0.11927853821128478,0.24638802311698005,-0.5998750063480398,-0.08101921251244823
501,46.7168,0.06811611406777904,-0.027188966835807335,-0.02964015407093319,-0.22780263383216595,0.19109020826481837,0.11668396991462335,0.2443899269730823,-0.6191424705109111,0.00320381963642385
502,46.7235,0.06663675934812995,-0.02603756701560768,-0.02885026935569634,-0.21379578994353987,0.15261123060064005,0.1191025122455543,0.1819684552919399,-0.5521302871895555,0.070414891606052
503,46.7303,0.06521283347549842,-0.02511039723015309,-0.028019387770356834,-0.20500593730112654,0.12008576512136312,0.1252744246190645,0.08165375791858673,-0.4233621976304623,0.11469096463950512
504,46.737,0.06384443184196652,-0.024381107700039064,-0.027152536639395698,-0.20347216226050202,0.09761260207678363,0.1334871070110419,-0.034966734754849016,-0.26070492814406887,0.1352972558719887
505,46.7438,0.06243983713571962,-0.02375714812503838,-0.02621416001302508,-0.20964392781221472,0.08590491998228497,0.1425060183921469,-0.15013471806225767,-0.09042781444871165,0.13519480761995667
506,46.7505,0.06099103439185092,-0.023184330910045195,-0.025231384545228955,-0.22283450319322975,0.08508529344846175,0.15085979289018517,-0.2513770304310032,0.06547896474345279,0.11908815641611606
507,46.7573,0.05940968380675849,-0.02257680905597482,-0.02418161931100513,-0.24226861006936085,0.09359760480757448,0.15789468776395507,-0.3314839656378637,0.1898193265155334,0.09189997180094907
508,46.764,0.05770741284595797,-0.021899077494563227,-0.023107193421530624,-0.26587197524406564,0.10871032397194035,0.1628294583477347,-0.38698571046593866,0.2702011139048004,0.05831094078427569
509,46.7708,0.05580841446503221,-0.02109520254963407,-0.021990735322945106,-0.2926569603224701,0.12772348336022063,0.165540570648085,-0.4163402762642831,0.30003497104130505,0.02299979944724633
510,46.7775,0.05375562721780086,-0.02017560907992206,-0.020880076772350646,-0.32011535228370497,0.14678202998656079,0.1659992952009008,-0.41947367791974693,0.2800936555458179,-0.009036549781659516
511,46.7843,0.05148614319488023,-0.019120867870054317,-0.019755985904801637,-0.34737994857546534,0.16343597291579098,0.16461566584300505,-0.3982366420512131,0.219385627246807,-0.03246078224771884
512,46.791,0.0490757120522405,-0.01798690618521165,-0.01866130229179021,-0.3721517357951349,0.1750600524106285,0.16215556192184102,-0.3557989714519261,0.13444309877823354,-0.042423034290292566
513,46.7978,0.046471173913989465,-0.016775887380919164,-0.017567491404655224,-0.3938888931016114,0.18112194885158014,0.15955352252936736,-0.29613431470830637,0.04736319775784378,-0.035616429101192545
514,46.8045,0.043774812369841834,-0.015558993349491429,-0.01650360739514719,-0.41099514992812813,0.18213000082860928,0.15802379374192266,-0.22456799661636187,-0.016678811354803907,-0.010947428988884221
515,46.8113,0.040938177152876704,-0.014326341536835962,-0.015427033717194337,-0.42330932564917984,0.180414649952119,0.15861552330277956,-0.14475449256615316,-0.03476739745995015,0.028694376838990485
516,46.818,0.03808025856781391,-0.013120839053390794,-0.014352921042117099,-0.42980069974332924,0.1794368376437197,0.16201512597424517,-0.05283832559247273,0.005003485098013448,0.07478711455740146
517,46.8248,0.03515849024409923,-0.011888955730243844,-0.013229630380770435,-0.4295429248779469,0.182881786810974,0.1683644803039197,0.060569419990366975,0.09831623604113922,0.11564051932217245
518,46.8315,0.03230901465151411,-0.010627784985642688,-0.01207325743542073,-0.4210468042525679,0.1935870921747243,0.17682147353206878,0.19804645908788782,0.22754565781867664,0.14178434956721694
519,46.8383,0.029507509561535823,-0.009243839591910122,-0.010837899730623596,-0.40292528103536246,0.21345567068789353,0.18651902787894026,0.34544798292519485,0.36834586096686556,0.14906133848401246
520,46.845,0.026898347551800796,-0.007718663477570279,-0.00955666277571857,-0.37592905022857537,0.24182078135370455,0.19593976462990012,0.4762981138797667,0.49506796675944414,0.13769919892338148
521,46.8518,0.0244602267698794,-0.005951870594313104,-0.008196180902957165,-0.3411652973955369,0.2778241843102957,0.2042019626529626,0.5663243092912691,0.5847336131588594,0.11009777986935433
522,46.8585,0.022303171644335963,-0.003957831244921311,-0.006808189600421569,-0.30273175500528327,0.31741144237363056,0.21012379929782843,0.6035654309327176,0.6202744129459414,0.07015872273884216
523,46.8653,0.02037961125757992,-0.0016619202463878987,-0.005368686757139751,-0.26302129992310086,0.3578564983716531,0.21325938990280824,0.5874167711861911,0.5927396851715212,0.023882823648215565
524,46.872,0.018739541872794425,0.00085619957135773,-0.003939507020185557,-0.22655165075897943,0.3938210591641144,0.21336142709830686,0.5226934537170824,0.5019960083416533,-0.020776883869806636
525,46.8788,0.017305362906437048,0.0036314102529057253,-0.002497291983824362,-0.19526569228740925,0.42241737658549244,0.21081946594920567,0.4156241666365048,0.35565483007156407,-0.055460733674284446
526,46.8855,0.016072849328057734,0.006519065751136125,-0.0010989731804164188,-0.17264880872122285,0.43956933930390285,0.20658913208288224,0.2728177097654935,0.1664387361478529,-0.07330762542416967
527,46.8923,0.01494128332363296,0.00952123431300745,0.0002895797150464653,-0.16016472199202575,0.44342141418787606,0.20180877834747613,0.10160069146944568,-0.05090864165392619,-0.07006308656890084
528,46.899,0.013869472416116942,0.012455528567569903,0.0016291380969750693,-0.1597788324902651,0.4324873185170528,0.19805939536242667,-0.08985448904069346,-0.2819174666979154,-0.04406546920773437
529,46.9058,0.0127395443612954,0.01530626460674044,0.0029714292324007773,-0.17255294833968016,0.4059644577097779,0.19673211505699423,-0.2932623650213651,-0.5135469797650722,0.004258138424908732
530,46.9125,0.011496028615815803,0.017888846536839236,0.004297984959273913,-0.19864578165411034,0.3649555214239433,0.19925466908411346,-0.5009849535830095,-0.7347359219552567,0.07252661499495443
531,46.9193,0.010008447767652055,0.020181050620390727,0.0056788300176779105,-0.23887799721768566,0.30922215020901056,0.20687623044657183,-0.7056457080114187,-0.9368000260388001,0.15605661116701108
532,46.926,0.00823138533717214,0.022027199705359716,0.007109335047297638,-0.2915883999403277,0.24186712888603323,0.22014019630544857,-0.8988215232977385,-1.1134389969012608,0.24768909136068956
533,46.9328,0.006025347186696532,0.023402836625342024,0.008672738792964686,-0.35724635019971346,0.16273196522650768,0.23968443477320567,-1.0703689587731486,-1.2599553972251925,0.3384749332241229
534,46.9395,0.0033809169886501217,0.02420350390212315,0.010362000891201349,-0.4321357984706035,0.07627319202151332,0.2645729079838454,-1.2092126705633877,-1.3717882681863347,0.41911251898925184
535,46.9463,0.0001573941013076562,0.024403045214948103,0.01226316428558894,-0.5159591683950557,-0.0175845706023961,0.29459279624793383,-1.304788780566937,-1.4431612100918214,0.4812335626191057
536,46.953,-0.00359150878867355,0.02396496173871423,0.014346912461117637,-0.603116321151214,-0.11318661633304654,0.3274215845067015,-1.3482130624903779,-1.4668971787252032,0.5180514415562407
537,46.9598,-0.007995959848945631,0.02286590245410495,0.016691191406258587,-0.6923104612820628,-0.21006611443446677,0.3620722228878618,-1.3268666667470808,-1.4386791424279262,0.5211784921882574
538,46.9665,-0.012912557382411781,0.02115057010489192,0.01922591708498988,-0.7753305934834811,-0.30197339279313923,0.3945623080764605,-1.2002072081582948,-1.358913151093976,0.4677966310307723
539,46.9733,-0.018421213565406977,0.018805677131358247,0.021997274080391115,-0.8448624015154961,-0.38770101118751865,0.42054269057115845,-0.8851666732514613,-1.2121998599870427,0.3113979939462234
540,46.98,-0.02421286858151599,0.015970193937753976,0.024849894079489905,-0.8839898421004133,-0.4587118824263227,0.4309856673694087,-0.3058448353097389,-0.9493206385189309,0.006478804648880551
541,46.9868,-0.030198565092468484,0.012684269462779372,0.027730968703360892,-0.8765091317077282,-0.5077364925654305,0.4163892220037295,0.5302037080158394,-0.5210084730613671,-0.4442503338023392
542,46.9935,-0.03584686282319616,0.009232532368270766,0.030364806664114227,-0.8095498923913311,-0.5226327893781992,0.36983106478889205,1.5079879916751977,0.0675757753502332,-0.9729469127164719
543,47.0003,-0.04090515769205517,0.005769995626440658,0.032602495609315676,-0.6781838925660051,-0.49576036998277834,0.28831274262277073,2.4318955334963617,0.7383725111036261,-1.471922345150737
544,47.007,-0.044841453661017876,0.0026793918347549155,0.034170417486122796,-0.4968298295132839,-0.42680792604349904,0.1797236385140287,3.088393373501193,1.3604909220123977,-1.833452879103423
545,47.0138,-0.047492385888201524,0.0001353948938895926,0.03495955931210668,-0.2828561196577507,-0.321426468328053,0.05237689853986835,3.3290319526913628,1.8000732244464828,-1.9858863979974979
546,47.0205,-0.04867785185295362,-0.0016024898779349796,0.03488171788934721,-0.07101431758194318,-0.1973451053513075,-0.07561314413972989,3.1192820820346703,1.9768753593111361,-1.9100396205165284
547,47.0273,-0.04852007082669178,-0.0025064147702593895,0.033965937310291794,0.1174205017766124,-0.0685151570971124,-0.1937340849942799,2.532189694128052,1.8869477863342146,-1.6326026877664301
548,47.034,-0.047266367770319506,-0.002583330936667962,0.0323548153768543,0.2568192165433504,0.04555510742291899,-0.28719783543466787,1.7110082018684523,1.5852700688812966,-1.2123675107337502
549,47.0408,-0.0452329230118636,-0.0019629545322573157,0.030182188829082537,0.34125277123794157,0.1369085409331973,-0.35180997273365094,0.8212936993507844,1.1545704388144207,-0.7254573115881561
550,47.0475,-0.04285526039865766,-0.0008437129205768352,0.027717918115520587,0.36849726255464893,0.1971934327026599,-0.3837932253443071,0.008009271096200338,0.6804588607354591,-0.2480901878400307
551,47.0543,-0.0404199026764903,0.000601103333223652,0.02509801936122473,0.3477844204359225,0.22775252429758566,-0.3867652318017187,-0.6292216512527451,0.23605882024191877,0.15895480049596045
552,47.061,-0.03827359230223583,0.0021390697062721375,0.02257469352538756,0.29290524352043096,0.23134191541823296,-0.36646636098525437,-1.041261526526146,-0.126800303213803,0.45892841373348847
553,47.0678,-0.03653849104394261,0.0036546483943591715,0.02020724173999483,0.21741865597769724,0.21441652225453137,-0.32984298765983333,-1.2227060375833192,-0.38082022090550466,0.6394671025572244
554,47.0745,-0.035348560751407666,0.0049919574391219645,0.018145561137891505,0.13778441642068107,0.18478020752527888,-0.285584057743947,-1.20130366941464,-0.521288155880336,0.7077432975701983
555,47.0813,-0.0346642390562488,0.006125787637802344,0.01636140208413362,0.06348667039079922,0.148699262674913,-0.23916860512614518,-1.027008572185515,-0.5608390336340584,0.684332866167824
556,47.088,-0.03443560416015933,0.00700277800636567,0.014900030035740155,0.004762552322451867,0.11308890704539892,-0.19706185708071974,-0.7605118841459686,-0.5231149062260526,0.5973666460018249
557,47.0948,-0.03454177478903842,0.007662993173160321,0.013681801961772037,-0.035989207875132774,0.08109202436483953,-0.16124051761587188,-0.461700779997434,-0.43652450654238717,0.47697454878935946
558,47.1015,-0.034853565897687636,0.008122083662716252,0.012692546435797925,-0.05708276485594599,0.0559499128159916,-0.13405963939123117,-0.18037211679964357,-0.32878351658751215,0.3503920843042518
559,47.1083,-0.035256624092844656,0.008439997814243186,0.011847713207557002,-0.061463763131440655,0.037554249397835165,-0.11442072185615859,0.04897873531283972,-0.22293284329435867,0.23861152204442035
560,47.115,-0.03564010296038326,0.008652192857022824,0.011124414839096274,-0.05300754061138854,0.025787554416961737,-0.10148923887831789,0.20842267376905416,-0.1352369968596354,0.1550136376674612
561,47.1218,-0.03594348328606768,0.008803745313740017,0.010463818172309732,-0.036221966942874814,0.01878669755869397,-0.0928038984118883,0.2950044325227979,-0.07473027499669059,0.10547408259294093
562,47.1285,-0.03611878131091834,0.008916565198189494,0.009863457920397872,-0.01610580166924495,0.014890879888900414,-0.08640811708413187,0.31731735471473577,-0.04385564860608881,0.08920895963310785
563,47.1353,-0.036159317690542744,0.009008334648533886,0.009297352507927736,0.004183337073830347,0.01210013491828005,-0.08009347481888937,0.2911874606875432,-0.03984340706534892,0.10017760204409812
564,47.142,-0.03607333039554613,0.009078788907294617,0.008785955650251148,0.021484512178882184,0.008930987099841869,-0.07256230359198353,0.23544802463143633,-0.05662320224163639,0.12906590251668712
565,47.1488,-0.03588143249098894,0.009123254185371295,0.008325926826684833,0.0349560479850105,0.004147035863890002,-0.06274029157461242,0.16858560699282948,-0.086855404740631,0.1655124768415419
566,47.1555,-0.03561695681422543,0.009127877421134516,0.00794580194600752,0.043991915227953385,-0.0027669654868098664,-0.050729822060369995,0.1064597758711132,-0.12360188701631496,0.20007768701356887
567,47.1623,-0.035298843702440706,0.009076744425182479,0.007649100956591121,0.049570764708752366,-0.01227215096967533,-0.03653517482682707,0.06085914369758044,-0.16147434075552872,0.22564325185553427
568,47.169,-0.03495575043789559,0.008955036651513855,0.0074553500774753555,0.05284513515553682,-0.024058527737403683,-0.021300908491354645,0.03881036770195272,-0.19729459901545285,0.23807699814794556
569,47.1758,-0.03458715211094767,0.008742979352642646,0.0073642597057958165,0.05556613747611727,-0.038311266048195805,-0.005490377296723463,0.042796990587583135,-0.23016858730321468,0.23610697229163524
570,47.1825,-0.03420224903256792,0.008432247137439054,0.007377743523539359,0.059330303831357276,-0.05444461908727345,0.009515397518679521,0.07178156048068877,-0.2609192235521997,0.22065815808369674
571,47.1893,-0.03377678767458553,0.007999437853895954,0.007489472784604468,0.06580538969277391,-0.07285222901353566,0.023346149853384873,0.12241696991064607,-0.2911554318586217,0.19414897113306917
572,47.196,-0.03330153034726218,0.007443804283172741,0.007684863368520299,0.07606246920982246,-0.09300853836665049,0.03497939758421961,0.18980124744296453,-0.322388312654365,0.15995882948572646
573,47.2028,-0.03273243053806278,0.006734497445309597,0.007954672473475923,0.0913198276133961,-0.11561111982822414,0.04437622152031186,0.26779215641958204,-0.3555004747427665,0.12186745634146874
574,47.2095,-0.03205267262985046,0.0058777833917975746,0.008274585468854902,0.11159298080834265,-0.14012441853376284,0.051120195010797474,0.3493082316725842,-0.390666931932671,0.08341430808081825
575,47.2163,-0.03120586764255523,0.004832185609950891,0.008637027266016574,0.13746730957266798,-0.16740434083298267,0.055480333566190476,0.42670566658947623,-0.4275030403408376,0.04735345591228411
576,47.223,-0.030183703774509588,0.0036123308604528322,0.009015640843823813,0.16765623312742578,-0.19673140528572416,0.05753864488369538,0.4922237304591191,-0.4651919776143741,0.015300079067269351
577,47.2298,-0.02892676580993628,0.0021648366070308725,0.009407251876507799,0.20203140351187118,-0.22900219866201357,0.0576410706116222,0.5387444626263553,-0.5026624697818308,-0.012228162143943757
578,47.2365,-0.027452142232047873,0.0005159014286961157,0.009788225271880877,0.23815473914124421,-0.2632172575571589,0.056082330992245015,0.5608242241826927,-0.5388196282290115,-0.035218765070666735
579,47.2433,-0.025706142000937817,-0.0013999465435301126,0.010159546387788904,0.2753747405971308,-0.3002674401565733,0.05312976192190701,0.5554651561596242,-0.5723766038423024,-0.053333662898791004
580,47.25,-0.023742503073978467,-0.0035408153275885987,0.010502463149124924,0.3107861331218907,-0.33879786851739674,0.04923345041717101,0.522432488067584,-0.6004622765309401,-0.06526729268898356
581,47.2568,-0.021517469778045212,-0.005982328851826804,0.010822278361746951,0.34363542450569506,-0.37929434449401284,0.04482984741285974,0.4627720710179915,-0.6140939917583711,-0.06680404198794586
582,47.2635,-0.019123264054204846,-0.008656124405677697,0.011110165419448679,0.37105285126731896,-0.41885358202838596,0.04110658772195665,0.3717949315776464,-0.5900611093411026,-0.046529339263989986
583,47.2703,-0.01653209315354931,-0.011626277158561096,0.011385914409709364,0.3910562371609639,-0.45472075705517667,0.03999605647238216,0.2281396834284894,-0.4856547697337321,0.013222671022519065
584,47.277,-0.013887527270211282,-0.014753759659893721,0.011668761106056844,0.3983664145814776,-0.4788561090139641,0.044435793183554756,-0.005623073415336184,-0.24900820633481152,0.12191976198448232
585,47.2838,-0.011219437568548124,-0.01802145782701381,0.012014585257826121,0.3863658506137582,-0.48223158719805764,0.05727719263096324,-0.35429368078363727,0.1477720348385069,0.2632150384229115
586,47.2905,-0.008756786700884468,-0.02116210341983305,0.012470878913739847,0.34875381137515704,-0.4552745599118621,0.07892986883577698,-0.7905900868208801,0.6727807346365127,0.39587705054433886
587,47.2973,-0.006614405921584729,-0.024042027725232718,0.01310648381380196,0.2813581825366824,-0.39176200050000937,0.10801274882959562,-1.2307162487806491,1.2320659288930687,0.47636660386140944
588,47.304,-0.0050379149550394825,-0.02634362403583065,0.013935485553447341,0.18923613583488197,-0.2952816743051235,0.13945045703461795,-1.5734134406075784,1.7047266936231316,0.48057491122874646
589,47.3108,-0.00412708261378691,-0.02793320642953902,0.014984470453027698,0.07865572923946858,-0.17224255913862785,0.16907451343026736,-1.743075778305999,1.9854197936052307,0.40789951820723824
590,47.3175,-0.003980179716887321,-0.028647096567989992,0.016192429847621148,-0.03480411822467985,-0.04085897472726588,0.19151038047810903,-1.710561415161396,2.0138032256000535,0.27503234390900244
591,47.3243,-0.004580267795390896,-0.02849383754230931,0.01753835900383112,-0.14169237545288488,0.08593515875100713,0.2043511360543308,-1.4951941399145492,1.7889624690562302,0.11008314573697518
592,47.331,-0.005821285023728732,-0.02757066114926791,0.018913768215729487,-0.22876052852844,0.18963988394783005,0.20621877794504992,-1.1550986160603514,1.3677357293195036,-0.05323345272197753
593,47.3378,-0.0075949300135561984,-0.026030156212037386,0.02028924072739758,-0.29289976259741096,0.2634498034730212,0.19833196078095716,-0.7685430565317581,0.8459457888702523,-0.18330523348449082
594,47.3445,-0.009687202496828768,-0.02413562158775862,0.021569453997700848,-0.33165918763366853,0.3020829201927005,0.18382125423522633,-0.41126632004148667,0.33001885223287525,-0.2583903702903634
595,47.3513,-0.012004719391520213,-0.022054321925386245,0.022759415681396465,-0.34996342845150225,0.31006403932809357,0.1661674762632033,-0.13770812490505396,-0.09065189399575323,-0.2710756184852257
596,47.358,-0.014361440571890788,-0.020026957608834453,0.023817839978829653,-0.35353543136113,0.29511933874751595,0.14978007520962372,0.02897889267357631,-0.3642541800378859,-0.22774523354220838
597,47.3648,-0.016751103564316167,-0.01811640636395879,0.024794066330516538,-0.3493066252340038,0.2668074979801693,0.13734532234511151,0.09784999466076297,-0.48486473318828055,-0.1451935635256341
598,47.3715,-0.01906928872212007,-0.01643557837045883,0.025693127330493327,-0.34268894426020985,0.23493220157242836,0.13103109555860626,0.10358751522873756,-0.48539665607961735,-0.047007016373580596
599,47.3783,-0.021377242584597958,-0.014940636437670896,0.026583478494619884,-0.336121015291565,0.20475660218837463,0.13083689389017084,0.09339553344800301,-0.4196194594563132,0.04118258725914535
600,47.385,-0.02360677849461288,-0.01365273935148264,0.027475411594631596,-0.3294120921760681,0.1796902892113893,0.13541179268068587,0.1108193224475098,-0.34338130896845964,0.09807408346995168
601,47.3918,-0.025813296555058537,-0.012503955477849858,0.02841996438816379,-0.3195638079544851,0.1581873206803338,0.14239785247561945,0.1845470037511612,-0.30152826862724175,0.11144939999243932
602,47.3985,-0.027898299588927346,-0.011512588388722567,0.029395060009431935,-0.30282515737994864,0.13774315368624052,0.14867546730613165,0.3249656342858471,-0.3207776580808355,0.07963673796304462
603,47.4053,-0.029861244916199667,-0.01065856191852508,0.03041632484481692,-0.2745117035826373,0.11344110225425737,0.1516965431012895,0.5242016563767051,-0.40808104350218405,0.010970319947495859
604,47.412,-0.031559272509014816,-0.01000439015356435,0.0314252581161798,-0.23236220472023048,0.08183405146530048,0.14947756775320553,0.7587991603061969,-0.5540151395994821,-0.07851435393671517
605,47.4188,-0.0329403494944221,-0.009594462322388943,0.03241364897001167,-0.17383690863495221,0.03873295770396619,0.14122562455035642,0.9964712305028116,-0.7386579223277238,-0.16897506584329275
606,47.4255,-0.0338628357053664,-0.009519382116056914,0.03331473901459572,-0.10153210955728678,-0.016320955813815118,0.1277564783104685,1.2044355126489303,-0.9371441135513309,-0.24101618179193146
607,47.4323,-0.03426301260637294,-0.009863882133721422,0.03412454208539964,-0.01616697897407826,-0.08500257879341755,0.11042089545544606,1.355805889665678,-1.1227313125061664,-0.2789066093460932
608,47.439,-0.03406468819102968,-0.010696121263138635,0.034803942951549593,0.07536829698697253,-0.16342701207731275,0.09238533324596794,1.4304629150167811,-1.2644527505734804,-0.27008309797244323
609,47.4458,-0.03323049572476015,-0.012100395256146725,0.03537860549401566,0.1699824283864773,-0.24959475057222497,0.07663306159703386,1.4071713133632877,-1.3198601899831517,-0.20235357237033683
610,47.4525,-0.03179877090205285,-0.01405368823733247,0.035862181970460746,0.25739811570511634,-0.33347778112482535,0.06771812540145257,1.2537001382007926,-1.233479698022283,-0.06901075528026286
611,47.4593,-0.029800376636940715,-0.01656938447035889,0.03632786493854833,0.33036490344565433,-0.40643287564782915,0.06924745344786927,0.9346944637981376,-0.954564205050133,0.11487783186536135
612,47.466,-0.027434829135993925,-0.01944937921696243,0.03683755658138699,0.37576867892629523,-0.45326704871116036,0.08289930560839662,0.4473642224109497,-0.4710347679074093,0.30067485426189344
