,Time,Position X,Position Y,Position Z,Velocity X,Velocity Y,Velocity Z,Filtered Acc X,Filtered Acc Y,Filtered Axx Z
0,101.338,0.0,0.0,0.0,0.0,0.0,0.0,1.2490483971752457e-05,0.0008093858171049186,8.79332322702119e-05
1,101.345,1.0861719656006445e-08,8.679128635737541e-07,9.13325121555322e-08,3.103348473142481e-06,0.0002479751038780383,2.609500347299055e-05,7.792479467343113e-05,0.0064153065782991065,0.0006723381425613536
2,101.351,5.668814195658555e-08,5.1266548820066695e-06,5.290851758521307e-07,1.2172125627049976e-05,0.0011716055689328798,0.00011982255109253674,0.00023032784185066736,0.02497939208892523,0.002513511854448928
3,101.358,2.2295887363327886e-07,2.4168468420687265e-05,2.4246524347856924e-06,3.533379770911417e-05,0.004268912584971973,0.00042176809431666536,0.0004444816593419679,0.06525987022030606,0.006283595741603981
4,101.365,5.991595563633788e-07,7.768639382329387e-05,7.583299064983244e-06,7.215211164248434e-05,0.011021923244364313,0.0010521309428845739,0.0006282106735842639,0.1314873999455282,0.01208186759395295
5,101.372,1.2477883590405082e-06,0.00019720893612217515,1.872274384474496e-05,0.00011317040340799165,0.023127374555291652,0.002130567565616499,0.000566846959041935,0.22120188483043482,0.019338112659421893
6,101.378,1.9472557774430583e-06,0.00038429150244477945,3.560034650351026e-05,0.00011998540272618282,0.03923348088557409,0.0034952999873050553,-0.0003352014491688418,0.3262533736007259,0.027049879899658083
7,101.385,2.3248669969455684e-06,0.0007504192141518044,6.741731901702019e-05,-1.2096482868399915e-05,0.06537443674492972,0.005595263587977,-0.003512971127442462,0.4353568124708815,0.03413203239368934
8,101.392,4.542353665187579e-07,0.0013248514700528481,0.00011544497092072285,-0.000522369697254249,0.09874906494129868,0.008126922670241812,-0.011353710865651739,0.5370046010717614,0.03962721937550056
9,101.399,-7.722615093588608e-06,0.002155298657005329,0.0001822246062707905,-0.001813873291346186,0.1385215599020977,0.010952973144049595,-0.026273922106173197,0.6217570544162592,0.04270905167689067
10,101.405,-2.5286804683755638e-05,0.00310162044821987,0.000255479783208996,-0.004040856572042601,0.1769190371694039,0.013465419168684647,-0.0494224431390543,0.683393949147811,0.04269034650818299
11,101.412,-6.916596838959751e-05,0.004508543391699481,0.00035956804349373617,-0.008496047343903263,0.22505894668162646,0.016274083769791284,-0.08037842148873778,0.7191502285912933,0.039139391507919195
12,101.419,-0.00015242889786972106,0.006257978048235996,0.00048202970762871195,-0.015293361079020476,0.27477952661517807,0.01871496312596211,-0.11765960766571079,0.7294463850365446,0.031975015732474917
13,101.426,-0.0002927176971190731,0.008355223168519606,0.0006194587811646702,-0.024789152992194315,0.32443336489399693,0.020550486455712193,-0.15899790573203615,0.7172057272337261,0.021502495657355264
14,101.432,-0.00047326246144966354,0.010425747526038563,0.0007454073029070077,-0.035392435118000214,0.36574142094562917,0.02143235412506535,-0.20141338408339518,0.686877422181234,0.008472663013992727
15,101.439,-0.0007742375099134002,0.013145755175392829,0.0008957373357497622,-0.05060043587175198,0.4114036217280406,0.021519083830063856,-0.24166789979093717,0.6434793337656128,-0.005945814833024629
16,101.446,-0.0011907537294087941,0.01617398526569762,0.0010431935696402878,-0.06840419826970409,0.45380497550128096,0.020611268710056217,-0.27704024790007986,0.5918734632273914,-0.020503150774336284
17,101.453,-0.0017396077778652516,0.0194861507860935,0.0011808768951881937,-0.0884112441463146,0.4925280303254375,0.018726824303603073,-0.30586001079015923,0.536313017349677,-0.03439966390321992
18,101.459,-0.0023259740871106093,0.0225310358174188,0.0012860018412671728,-0.10704419226879722,0.5224336467829572,0.01631482438938864,-0.32748396574555566,0.48019504801136625,-0.047585516704304553
19,101.466,-0.003155721355202926,0.02629692563769786,0.001387207021036375,-0.13002645575789085,0.5535348732981893,0.012600941258992845,-0.34209851113416667,0.4259313783064314,-0.06061753590068962
20,101.473,-0.0041491632675546945,0.030267880699751566,0.0014592047635517411,-0.1538140906281258,0.5810237158592015,0.00796984231681133,-0.35094825873898633,0.37494914842048044,-0.07430836910628326
21,101.48,-0.0053108859010107074,0.03441947590213997,0.0014953139945674072,-0.17810666178764073,0.6051463419652103,0.002347080830514465,-0.3568097031541483,0.3278575070047843,-0.0895093751588793
22,101.486,-0.006443130745072469,0.03810441786337903,0.0014920409422552483,-0.19930828623293234,0.6231676451144289,-0.0034380982679007403,-0.36384496979025827,0.28469632633680625,-0.10713198889561389
23,101.493,-0.007927171842363802,0.04253024396066906,0.0014397050723200077,-0.2247034558508636,0.641354096970101,-0.011515007427901949,-0.37603692137440115,0.24516138262878828,-0.1281867317105006
24,101.5,-0.009592585408628186,0.04707424857849932,0.001325294900355488,-0.25112899165290586,0.6569329366947579,-0.021173613133366076,-0.3938644298813691,0.20872420155995192,-0.15321432064995227
25,101.507,-0.011447178143381222,0.05171880744842834,0.0011369417034402139,-0.2787546468475831,0.6700838832840144,-0.032641585985245206,-0.41100209857949344,0.17442532567038863,-0.18090218926557694
26,101.513,-0.013192618539537111,0.0557671015784653,0.0009068359268847514,-0.3030588185376911,0.679347493394921,-0.04406033953323938,-0.4151098319338849,0.14044978835619146,-0.20722741489737176
27,101.52,-0.015411229186839343,0.0605519385006347,0.0005463164558894588,-0.3308299378352089,0.6877487700838483,-0.058945223608408294,-0.3939947566449826,0.10431929877020854,-0.2264399456673906
28,101.527,-0.017815532821130287,0.06538641384583868,7.849646214140447e-05,-0.3561139576759987,0.6935298999734453,-0.07471763174808314,-0.3426488136661745,0.06411246916548036,-0.2330852056960377
29,101.534,-0.02038139371662612,0.07025120909264432,-0.0004993847907058878,-0.3769891553222868,0.6964115991128849,-0.09039129763673949,-0.2655448288773523,0.019845111789063372,-0.2235631149739783
30,101.54,-0.022682058952631826,0.07442912470410837,-0.0010788376090306595,-0.3898992566795859,0.696226938041744,-0.10275964180484373,-0.17327649329684075,-0.02612184139400428,-0.1968435875562357
31,101.547,-0.025441474553571694,0.07929117471087146,-0.0018403733332466863,-0.39850520073284285,0.6929302067495402,-0.11482199368573587,-0.07745552610597715,-0.06992759713446155,-0.15459000614681281
32,101.554,-0.028238834216569756,0.08412034950188954,-0.002674808364005122,-0.4007404172660322,0.6868340192546405,-0.12358801510221823,0.012333053580038274,-0.10768329503405373,-0.10080582704439942
33,101.561,-0.03103181477695121,0.08889883637088054,-0.003556961044329304,-0.3972540285566695,0.6784479433132412,-0.12845560784736798,0.08924200618218407,-0.13664292212888696,-0.04101026553844078
34,101.567,-0.033394303595589696,0.09294373042093398,-0.004329646144075997,-0.3902422443246616,0.6698500733743794,-0.12910609206879678,0.14909232926108684,-0.15560332366289004,0.018899955309146572
35,101.574,-0.03608520918499408,0.09759420576048197,-0.00522225558999917,-0.3785879240760427,0.6588571664955238,-0.12592517819478447,0.19045336527448867,-0.16467225839761224,0.07377517181698148
36,101.581,-0.038686632464395514,0.10216662295195304,-0.0060804584523245775,-0.36467587003812113,0.6475477453524204,-0.11927563961229959,0.21487083639075513,-0.1648248872883775,0.11995746536522577
37,101.588,-0.04118634515105585,0.10666071283572419,-0.0068823099862418005,-0.34952775472291364,0.6364779357267385,-0.1098247986500655,0.22646570026629304,-0.15769123699453352,0.1553904133627369
38,101.594,-0.0432431894072812,0.11045281582965943,-0.007511726335894326,-0.33608699735217984,0.6275563955849633,-0.09998065123410158,0.23039290658835215,-0.14555673391550428,0.17921747740402347
39,101.601,-0.045540360900743045,0.11481246764755754,-0.008167075030332763,-0.3202477150650206,0.6180584095278913,-0.08726183289103254,0.23108060627275842,-0.1311647053138599,0.19134210186281359
40,101.608,-0.04772654986730018,0.1191090254168147,-0.008731824084091224,-0.30437770395085884,0.6095295245447089,-0.0740950396112696,0.23128818324835912,-0.11732221742810721,0.19226911471700078
41,101.615,-0.049801543864638635,0.12334883310956801,-0.009205391493896362,-0.288477723860907,0.6018441019578328,-0.06120993461894762,0.2319537448593988,-0.10659064015573988,0.18313518432902356
42,101.621,-0.0514914106342028,0.12694157166413075,-0.009541859828385391,-0.2748111993271277,0.5957354162297062,-0.05094617687739117,0.2325788098790937,-0.10104688907617183,0.1657354881757246
43,101.628,-0.053359276772256485,0.13108732236220333,-0.009861454314638958,-0.25886484011640093,0.5887647832187518,-0.04036653348070539,0.23201436226766137,-0.10204075366623488,0.14249976608478007
44,101.635,-0.05511591500348976,0.13518319561831832,-0.010112920010162917,-0.24303179737846145,0.5814847185275539,-0.031480808097517424,0.22927736289341838,-0.1100621033948312,0.1163836121237858
45,101.642,-0.05676268528480445,0.13922537431880813,-0.010308422121694253,-0.22747399728349837,0.5734234816139092,-0.024376938054366283,0.2239952369672747,-0.12480001024832607,0.09058585810189888
46,101.648,-0.05808865826578899,0.14264207654532235,-0.010440679039623214,-0.21451699637799773,0.5654772605574554,-0.01970870125528597,0.21642022619633225,-0.1452963378574153,0.06809003356617448
47,101.655,-0.059539379040095125,0.1465625299128064,-0.010564314026861586,-0.19997465342345844,0.5546522730086215,-0.015615580812795139,0.207267284815624,-0.17008695668036264,0.05116200291600583
48,101.662,-0.060890570522813985,0.15040095396306868,-0.010662554521527708,-0.18608005592451077,0.5420403127798117,-0.012453131948933938,0.19754832496921598,-0.19735933825509608,0.0409751507751539
49,101.669,-0.06214677297873107,0.15414447571783285,-0.010740301082655763,-0.1728349314808442,0.5275373314399318,-0.009760171230539764,0.18834505040606475,-0.22518138199665752,0.03748358366664153
50,101.675,-0.06315122582492455,0.15726760414656646,-0.010792061139427683,-0.1619826839169703,0.513505478137899,-0.007493181026766225,0.1805287091983359,-0.25176889501034444,0.03957263851502272
51,101.682,-0.06424244515233367,0.16079877655547825,-0.01083430236178928,-0.14979426677112717,0.49540092440761047,-0.00457573964796703,0.17457776434867897,-0.2757027326322876,0.04542628360989427
52,101.689,-0.06524954199815261,0.16419790073774984,-0.010854510276320466,-0.1379476891775185,0.4757774133855502,-0.0011979502180937689,0.1705692996661695,-0.2960233343612062,0.05298476340929913
53,101.696,-0.06617446442359282,0.16745527527280027,-0.010849278972549756,-0.12631586094806715,0.4549010251996243,0.0026926084382956766,0.16832109553775662,-0.3122049942557747,0.06036568628953249
54,101.702,-0.06690271152047089,0.1701285232790681,-0.010821956051093757,-0.11643317134461498,0.4361816435562885,0.006415032047037406,0.16759686501118418,-0.32407690436523057,0.06616150389065437
55,101.709,-0.0676774008873903,0.17310301058985073,-0.010760748053679423,-0.1049066477750593,0.41367187380957005,0.011072967214188288,0.16822550536423722,-0.3317395859522702,0.06954626779335756
56,101.716,-0.06837110804416621,0.1759185598132231,-0.01066644934592575,-0.0932953970183199,0.39077076144073897,0.01586952071546778,0.17006537033904787,-0.33547857341221954,0.07020011425456192
57,101.723,-0.06898297483288048,0.17857332555924904,-0.010538741449617951,-0.08152368547134414,0.3677337374232703,0.020618449658162792,0.17290049020215464,-0.33569933771229227,0.06815873823523165
58,101.729,-0.06944129142637041,0.18072071385528293,-0.010403395178231026,-0.07124851235863014,0.3480623612546699,0.024496974137476996,0.1763581969374773,-0.33294136931133217,0.06367440489771244
59,101.736,-0.06989723751833732,0.18307775712572213,-0.010217406226195038,-0.05902179963182091,0.325378573156053,0.02864272644419613,0.17986400874658093,-0.3279451020000643,0.05711104773511968
60,101.743,-0.07026683498522189,0.18527737082495127,-0.010004171922333431,-0.04657747662105352,0.30308248376738345,0.03228136037348621,0.1826982179285764,-0.3216458647331185,0.048899638287553324
61,101.75,-0.07054880201119576,0.1873224611085051,-0.009767575778865223,-0.03398453079999568,0.28122902581900805,0.035317537760239076,0.18419409701074235,-0.31504914611184814,0.039558627619493546
62,101.756,-0.07072021740887707,0.1889547496786738,-0.00954955568771599,-0.023153935093771637,0.26286716423720546,0.037355825956169125,0.1839437042507701,-0.30908045240215065,0.029723889717550696
63,101.763,-0.0708383486074236,0.1907211113761214,-0.009282074932414482,-0.01059783591949806,0.24180760646175256,0.039067246987063986,0.1818750928851269,-0.3044844762195458,0.02013793235198201
64,101.77,-0.07086927629153417,0.19234093474696962,-0.00900479400540736,0.0017613547450410442,0.22099907092406043,0.040155875015075095,0.1782068242558034,-0.3017669825273108,0.011578971935634444
65,101.777,-0.07081471617870932,0.1938154951772221,-0.008721743238532361,0.013827248919188729,0.20030390914777568,0.04071577266343816,0.1733299732712118,-0.30118136014307756,0.004733505482754966
66,101.783,-0.07070165741227931,0.19496401466186844,-0.008477025592976506,0.02385900655748273,0.18253591906765934,0.040856775855177385,0.1676548903432275,-0.3027622250810874,5.926920718212103e-05
67,101.79,-0.07049510558887265,0.19616859108253312,-0.00819129719903787,0.035155800130090814,0.1616287725505739,0.040779908127231874,0.16147435424663215,-0.30636223979210736,-0.002298791162632312
68,101.797,-0.07021100639424499,0.19722574866148818,-0.007906415380572417,0.04601539833506083,0.14041625000841076,0.040614897148718666,0.1549173130690394,-0.31165927890594913,-0.002508762269067525
69,101.804,-0.06985250778127922,0.198133002517518,-0.007622529595340049,0.05641277679794626,0.11879913742849521,0.04049532720332862,0.1480076981042242,-0.31814986896528696,-0.0009748780709047081
70,101.81,-0.06948854733820817,0.1987890176690115,-0.007379485351092042,0.06490737089239859,0.099872579735999,0.04051942087933747,0.1407281459217517,-0.3251740555313723,0.0017938351394533511
71,101.817,-0.0690013080518942,0.19940917842108455,-0.007094991145243906,0.07430385376891913,0.07731620657082247,0.04076463793452259,0.1330360236259647,-0.33200021368408605,0.005350502199726685
72,101.824,-0.06845019429802657,0.19986990974456365,-0.006807855690542037,0.08315721876457638,0.054321314423109696,0.041274063408809764,0.12490454281622164,-0.3379501959926231,0.009491481098394183
73,101.831,-0.0678391045878044,0.2001684112847,-0.006516071050845732,0.09143984129877664,0.03096483990150416,0.04209297650436074,0.11640758530075855,-0.3425348253693782,0.014367346345968009
74,101.837,-0.0672706830354727,0.20029346660077296,-0.006260445307346664,0.09803400947844969,0.010720265456145715,0.04311560466199231,0.10773175482975857,-0.34558920085628425,0.020392337393519443
75,101.844,-0.06655960813798528,0.2002852621870358,-0.005952828302033503,0.10513024694679483,-0.013064383666771744,0.04477496828474082,0.09901534224517032,-0.34737058001977583,0.027952805159185374
76,101.851,-0.06580097017533508,0.2001102111086427,-0.00563159129238047,0.11162345666739243,-0.03695021015979179,0.04700703447320297,0.09016269279353009,-0.3485369781314489,0.03707788286404539
77,101.858,-0.06499905682926793,0.19976764540353767,-0.0052924148953885876,0.11749464220877238,-0.06092570558443163,0.04990050752440846,0.08089282394768302,-0.3499830618304344,0.04722272805386423
78,101.864,-0.06428068741125584,0.19934008105610584,-0.004983790369734788,0.1219618304619168,-0.08159574355950486,0.05297433436018736,0.07094931899084184,-0.35260269970459335,0.05725830729047808
79,101.871,-0.0634111996814816,0.19868366015702726,-0.004598199919788936,0.12646323518819363,-0.1059530847489093,0.05719436562448685,0.060197977596758066,-0.35704232074979175,0.06569124412339604
80,101.878,-0.06251288696065103,0.19785543329567898,-0.0041814154945763755,0.1301975421917847,-0.13068316135043564,0.061886898721873786,0.04860011942598794,-0.3634622523571937,0.0710245295719633
81,101.885,-0.06159129486392855,0.19685238484669396,-0.0037310042630796527,0.13311448544302237,-0.15590210978793898,0.06680202456281213,0.03638428987748313,-0.3712854789558966,0.07217642782312321
82,101.891,-0.060787230526474605,0.19585075066893548,-0.0033177441434832635,0.1349069603749488,-0.17797594946487083,0.07095134863597896,0.024542901770576997,-0.3790162610855044,0.06886133985379939
83,101.898,-0.05983813475419685,0.19451321041912695,-0.0028054012469733514,0.1362632602761954,-0.20417840762378617,0.0754323360813313,0.014972555342661429,-0.384385779044693,0.06169110437998189
84,101.905,-0.05888132040090767,0.19299155218091552,-0.0022637373837012162,0.13711226923480535,-0.2305810890077435,0.07932876771059676,0.009763107516122768,-0.384849714477952,0.0518304529091364
85,101.912,-0.057919113475718154,0.19128583040318614,-0.0016973538722433212,0.13780399510485927,-0.25676799034315484,0.08249509270582904,0.01039015204472739,-0.37809908150356913,0.040419630896386935
86,101.918,-0.05708983072792783,0.18967986279721216,-0.0011963299290075103,0.13862358749190393,-0.2785545449814862,0.08451288837276826,0.017468236125362392,-0.36243768481760097,0.028166334305428302
87,101.925,-0.05611368017149923,0.18764593418142536,-0.0005995259467508142,0.1402765714880629,-0.30256791667265176,0.08600253512936924,0.030691037608311673,-0.33718587066179834,0.015234149960800695
88,101.932,-0.05512221553782604,0.18545103699224036,4.477484529984838e-06,0.1429990381326445,-0.3245455659511904,0.08656987380787858,0.048627344585102164,-0.30312742340827253,0.0012951200027713579
89,101.939,-0.05410713428556489,0.183111234654532,0.0006089038900322229,0.14702417679949448,-0.34396938768065105,0.08612338490727375,0.06864405993137487,-0.26278074617887254,-0.014303462027400488
90,101.945,-0.05321122739550682,0.1810047860965918,0.0011215350669598896,0.15161145321985187,-0.358180131632721,0.08475367406860863,0.08727994471027888,-0.22025012070123537,-0.03225374961521161
91,101.952,-0.05212732456473214,0.178449377149817,0.0017045740442288113,0.15807506985840755,-0.3719367103024108,0.08182889086524996,0.1010359033127045,-0.1805443451438794,-0.05295907472502347
92,101.959,-0.05099577641103229,0.17580629082752666,0.002261858965473251,0.16522440262703234,-0.38323081035143197,0.07739537234733333,0.10725811200546297,-0.14850642431250477,-0.07621037422509729
93,101.966,-0.04981373799034986,0.1730904909125254,0.0027823472461968673,0.17250086042553547,-0.3927120225070939,0.07131556500246694,0.10473965914291129,-0.12772631151105554,-0.10092328638492273
94,101.972,-0.04876120419351878,0.1707123700670931,0.0031902909249855835,0.17834373851814467,-0.39999492597030345,0.06466566126043333,0.09386292490665261,-0.11982351312186412,-0.12511053563154417
95,101.979,-0.047492347178155196,0.16788307816303513,0.0036103625323900103,0.18418683729976307,-0.40837418947425536,0.05535479799788857,0.07637429114030751,-0.12430422538636124,-0.14615912795790373
96,101.986,-0.04618725718770561,0.16499283952765964,0.003960916631047343,0.18869601711413697,-0.41740827777529566,0.044803515904134866,0.0549995306867376,-0.13890166918616534,-0.16124982686200087
97,101.993,-0.04485581252508217,0.16203506066429466,0.0042350117862896336,0.19171674363591812,-0.4276713974729533,0.0335093855937654,0.03300857814859685,-0.1601117465695025,-0.1678018242518372
98,101.999,-0.04370138993313613,0.15943868331933306,0.004406787044253608,0.19309078701274626,-0.4377877175142134,0.023749033727557357,0.0136958988076212,-0.18374743882203465,-0.16395781049287417
99,102.006,-0.04234813015158988,0.1563274049000022,0.004535427250638219,0.19355486485733592,-0.4511489737225469,0.01300531095373376,-0.00017510731586168265,-0.20552940636024913,-0.1490578552271342
100,102.013,-0.040994085444842315,0.1531180350011365,0.004593667346300896,0.193315051355977,-0.46581385452414076,0.003634716378447672,-0.00681179883918127,-0.2217282140615599,-0.1239520651630206
101,102.02,-0.03964237810281118,0.14980310127306837,0.004593289642361676,0.1928870463677128,-0.4813100677822826,-0.003742631789653515,-0.005658019039933293,-0.22975006877019863,-0.09098512157428502
102,102.026,-0.03848532846017967,0.14687479689757943,0.004558075626970967,0.192796167842776,-0.49479139071399214,-0.007995373340582446,0.0025690088636143357,-0.22848738342496241,-0.05356786206194718
103,102.033,-0.03713350517982688,0.14335758002228066,0.004493811829862432,0.19343905511488935,-0.510127716513512,-0.0103657115475575,0.016161350407547206,-0.21833261843992094,-0.015491346506389073
104,102.04,-0.03577353253725274,0.1397363186877888,0.004421755014544361,0.19512455704887383,-0.5245183790548514,-0.010221949971876606,0.0329453252806929,-0.20093572181400857,0.019679803921387847
105,102.047,-0.0343975976367406,0.13601906662570015,0.004358446370800857,0.19799970024082678,-0.537553638686161,-0.007866233954862401,0.05082124978991811,-0.17884329494143747,0.04895339081359315
106,102.053,-0.03319910628917498,0.13276427780458586,0.004321757593800514,0.20149741561436485,-0.5473759683518938,-0.004363358378585059,0.06806798603604126,-0.15502299870394418,0.07011124309221603
107,102.06,-0.03177043509935366,0.1288981345331199,0.00430947904565088,0.20669435290572222,-0.5572363949233045,0.0008552017644065405,0.08334347721604188,-0.13225805391715853,0.08193019651364529
108,102.067,-0.030302072546046162,0.12496806615988693,0.004335445105336362,0.21283780518268525,-0.5656402831447372,0.006563672431455224,0.09564446251206173,-0.1125871195531435,0.08438466321510127
109,102.074,-0.028788180017588733,0.1209834009778288,0.004400978645720105,0.21970291723341384,-0.572835483156773,0.012160196249600762,0.10436885354602658,-0.09704322638647435,0.07866865317564344
110,102.08,-0.027451112665895134,0.11753025200473033,0.004486795655864112,0.22598619999776842,-0.5782141745426709,0.01644547379840051,0.10920332330520367,-0.0857814006403435,0.06699024661173167
111,102.087,-0.025842909378518183,0.113463021867866,0.0046162357273694795,0.23350045353817472,-0.5838515788463073,0.020537403774535275,0.10972256708261417,-0.07846295843181533,0.05222710593204046
112,102.094,-0.024182594792872887,0.10935767021301931,0.004770776414431931,0.24087514236110477,-0.5891060368257172,0.02361707824336606,0.10513714030077917,-0.07462435562596861,0.037498436541247314
113,102.101,-0.022472475537397056,0.10521609591024979,0.004943684117949335,0.24773035920306874,-0.5942009068218729,0.025785122761571307,0.0945878813342209,-0.07381340260520551,0.02566699619218793
114,102.107,-0.020970884398910702,0.10163770810457724,0.005102324825486024,0.2528000202923637,-0.5985950284022645,0.027095113083989795,0.07773263890101961,-0.07554516463884088,0.018860282828287552
115,102.114,-0.019185329057806434,0.09742894712024577,0.005296435078372442,0.2573586485942052,-0.6039081099772947,0.028364959169232793,0.05508185219396617,-0.07925013315912409,0.018136364060509898
116,102.121,-0.017373838120876256,0.09318195504947795,0.005499971369529707,0.260210190529384,-0.609518195957968,0.029788266875776872,0.02799710618580772,-0.08419831343230932,0.023331348637242576
117,102.128,-0.015549171038109552,0.08889447754379598,0.005715264029714665,0.26112326168930156,-0.6154753770931487,0.03172392174845269,-0.0013950071752400809,-0.08936266334442494,0.033063470116924544
118,102.134,-0.013985245865807041,0.08518549171107045,0.005912490982686343,0.26018512907818253,-0.6208532338153142,0.034018395908770996,-0.030492627274137585,-0.09343359301105209,0.04492694660092227
119,102.141,-0.01217444984408977,0.08081686803092702,0.0061627441120240736,0.2571851628406675,-0.6273249605104867,0.03748249818767226,-0.0569106358909562,-0.09511853947536879,0.055998803604988705
120,102.148,-0.010390493107235464,0.07640293119455373,0.006439496039092643,0.25251676197551937,-0.6337998498835427,0.04158948097488014,-0.07910205127698623,-0.09352573683755645,0.06365710881051594
121,102.155,-0.00864396141818981,0.07194447252645886,0.0067462405820462226,0.24649229203716808,-0.6400454838569399,0.04605181701179432,-0.09641936788674443,-0.08843924096228273,0.06635193132073576
122,102.161,-0.007183123330183145,0.06808929642432207,0.007034048213653787,0.24045373729836828,-0.6450132168552754,0.049884060190723424,-0.10883437111687619,-0.0804166883759788,0.0639080854001955
123,102.168,-0.005527035801344039,0.06355606053404167,0.007397799327805784,0.2327141280838953,-0.6501970375096277,0.05404482956691592,-0.11665720025757549,-0.07061262494999661,0.05731488578159065
124,102.175,-0.0039265088114555325,0.05898894668894869,0.007788790397423827,0.22457929759913686,-0.6546926325186534,0.05766690460981451,-0.12034904360374418,-0.06036540698406758,0.04821336124330302
125,102.182,-0.0023833851352241973,0.05439274465507442,0.008202848566863655,0.2163131813237866,-0.6585079485873425,0.060635429515766046,-0.12048217880566586,-0.05079286881235306,0.03827386662027982
126,102.188,-0.0011065372944967405,0.05043345617490276,0.008572566036118274,0.20930276558534952,-0.6612548781364938,0.06260372690243543,-0.11780564080098982,-0.04257675109356714,0.028629625284679598
127,102.195,0.00033082772177697576,0.04579524694651048,0.009016577685442758,0.20137295335053823,-0.6639477585487598,0.06425674433329849,-0.11322744781953695,-0.03587964364934454,0.01953062256070311
128,102.202,0.0017139058697240373,0.041139661161381805,0.009469966829297186,0.19379223177691127,-0.6662196086299113,0.06528301105358854,-0.10763497202884682,-0.030310138099335335,0.010369400682688445
129,102.209,0.0030452991409860653,0.03646947415297458,0.009928207334788785,0.1866058457262534,-0.6681195366283428,0.0656428476582033,-0.10173858135883862,-0.025043787143235876,0.00011434845297842803
130,102.215,0.004147473535274008,0.03245685512228681,0.010321010347044917,0.1807856190363803,-0.669420140267529,0.06529148976050232,-0.09609406927016928,-0.019164433441307808,-0.012057193281095802
131,102.222,0.005390476962297561,0.027767167558063126,0.010773447797060699,0.17435821725653072,-0.6704905923695724,0.06397635310131945,-0.09116666793681438,-0.012022919806444399,-0.026258983108966225
132,102.229,0.0065895482561554785,0.0230718793786511,0.011213112747315783,0.1682335809883437,-0.6710203160329042,0.061642204114329135,-0.08727307209914198,-0.003410446133474158,-0.0417458616207004
133,102.236,0.007746549462406174,0.018375103022565575,0.011632732802579855,0.1623381922259045,-0.6709157857048582,0.05824924024674852,-0.08448759941122502,0.006455910997940965,-0.0571072888312362
134,102.242,0.008705826718483205,0.014351685435453964,0.011970954685079626,0.15742089313309374,-0.6702234099989611,0.05449138725317055,-0.08265405422212886,0.01707831342789994,-0.07062416528672882
135,102.249,0.009788052319565876,0.0096655178754489,0.012334228035222597,0.1517864214623618,-0.6686816071471047,0.049300998502100665,-0.08150486332695024,0.0278417255794066,-0.08059650788844785
136,102.256,0.01083106054434893,0.004992660833050499,0.012659371576042378,0.14621592847544077,-0.66642040496577,0.04359715601777027,-0.08079005133131129,0.03803783228134702,-0.08558351089840505
137,102.263,0.011835220494437106,0.0003379124532225204,0.012944105637289727,0.14068691440668996,-0.663507703555559,0.03775543290998549,-0.08029638545966704,0.04682299204876127,-0.08461362523678626
138,102.269,0.012665217649640844,-0.003634290690186645,0.013156336378980825,0.13597880399454565,-0.6605600109141125,0.03298814765371144,-0.07973483186545133,0.05337067386319073,-0.07742897702031713
139,102.276,0.01359804491517805,-0.008244925707279749,0.013370175184533997,0.1305432718735781,-0.6567642796856502,0.028108653932989544,-0.07862803184655504,0.0572170025303737,-0.06473384749827316
140,102.283,0.014493225994811992,-0.012828374647854052,0.013553360763429879,0.1252227508787939,-0.6527925604775006,0.02423008289436786,-0.07638401157821675,0.058498039468001174,-0.04826734596647957
141,102.29,0.015351888494386358,-0.017383939426498005,0.013713506572002734,0.12010939185656377,-0.6487973762769844,0.021525862412129646,-0.07259241978581997,0.05790064919190291,-0.030519438867901268
142,102.296,0.016060196981905552,-0.021266633915997857,0.013838719712755593,0.11599343731649177,-0.6454341202229172,0.020211851172155185,-0.06731109942722585,0.056418241699041194,-0.01414451331333664
143,102.303,0.01685672733254975,-0.025771280006397286,0.013978341266241655,0.1115866628678645,-0.6416076198928989,0.019680021252486423,-0.061079167778717164,0.05506588474353517,-0.0013502178761976374
144,102.31,0.017623928588336845,-0.030249356367977084,0.014116710791439637,0.10761369592829163,-0.6378427691289856,0.019854128804051435,-0.05467222656142182,0.05462209706795142,0.006422797679986443
145,102.317,0.018364782201718808,-0.034701030898953114,0.014257480915804033,0.10405876503826164,-0.6340642397229818,0.020365906728685924,-0.048899792426704024,0.05546440854693681,0.008487723668432687
146,102.323,0.018980902135871194,-0.038495427923972036,0.014380854920691412,0.1013145463458595,-0.63073476861661,0.020758761567105807,-0.044377683993277434,0.05770611371335234,0.004865624601019453
147,102.33,0.019679813070335957,-0.04289625955114443,0.014526317859402277,0.09837429207250181,-0.62664569628889,0.02080207806454007,-0.0412858860872462,0.061427981961291844,-0.0036036093232164825
148,102.337,0.020358699633349377,-0.047267369560395664,0.014669671085820986,0.09559329735976585,-0.6222428777819993,0.020155986626490503,-0.0397376966779174,0.06684702987506799,-0.0152201025180663
149,102.344,0.021018317330637862,-0.051606044667441425,0.014805573730634836,0.0928689018657633,-0.6173785813755623,0.018673340463232026,-0.039636882059284416,0.07487302470723145,-0.027976421218681696
150,102.35,0.021568544376381886,-0.0552960413201408,0.014911567303133881,0.09054011338223804,-0.612620302857516,0.016657850369781717,-0.039519897048945485,0.08686343364997616,-0.04053117629423838
151,102.357,0.022193091706980125,-0.05956159561185268,0.015017012813798398,0.08790198107427445,-0.6061094947735787,0.01346943839148736,-0.03734142541989516,0.10282732528642126,-0.05236240621768915
152,102.364,0.02279998317159556,-0.06377748500227859,0.01509746251673398,0.08549558024429696,-0.5984303310615329,0.009516191018662332,-0.0327684586158147,0.12090318155013098,-0.06281446349600228
153,102.371,0.02339124520510799,-0.06793528679836477,0.015148075549419633,0.08343642933090567,-0.5895130392503696,0.004944675462972224,-0.02722438628007591,0.1388998766130266,-0.07037549450468744
154,102.377,0.023887482295968147,-0.07144641339439119,0.015165092169513686,0.08197593428913985,-0.5808624927583894,0.0007275312350451353,-0.022418629488671415,0.15513687368667867,-0.07296751688475846
155,102.384,0.0244562367383465,-0.07547361627038872,0.015153162574520485,0.08052533496170264,-0.5697669003829402,-0.004135986947385883,-0.019844217731944155,0.16813042453708701,-0.06872986433622187
156,102.391,0.025015043760079653,-0.07942058102678023,0.015109143225677161,0.07913381410479785,-0.557937315728117,-0.008440969864983057,-0.02069739308181972,0.1765215544717549,-0.05669473216845601
157,102.398,0.025563445121307544,-0.08328340805131897,0.015038784227840716,0.07755228910337757,-0.5457275484272565,-0.011661600945456386,-0.025379940780475223,0.17920695048229238,-0.03713754579678963
158,102.404,0.026023586119571666,-0.08652647588731384,0.014964512673226963,0.0758280436513236,-0.5352950635709921,-0.01309558392579347,-0.03322809397328551,0.17539884783700976,-0.011604310676013021
159,102.411,0.026545225318393855,-0.09023264256086314,0.014873520049981796,0.07321172744062428,-0.5236097002994771,-0.012902308429950125,-0.04299762197886223,0.16505127737705078,0.01723534372408921
160,102.418,0.0270460996971847,-0.09386011259988186,0.014790783390160038,0.06989523792808588,-0.51281031084799,-0.010736737233392635,-0.053627467338402214,0.14958622302112992,0.0458580294040853
161,102.425,0.02752118748909056,-0.0974159418315951,0.014729589564419327,0.06584413118805266,-0.5031408982142744,-0.00674721297826195,-0.06440051047078278,0.13212968648133777,0.0703757581682234
162,102.431,0.02790399935404809,-0.10041283257963614,0.014703025482436561,0.06175982379778637,-0.4958226844660339,-0.0021074810159929644,-0.0744273050172155,0.11662035382261415,0.08733123869169002
163,102.438,0.028317496371871326,-0.10385680012264994,0.01471013493476354,0.056382181294481894,-0.4881680421086373,0.004138753109414407,-0.082248959217495,0.10639572950250988,0.09465122438629155
164,102.445,0.028691960070043796,-0.1072487416202869,0.014761554555022817,0.050607446754936385,-0.4809581000746245,0.01055256696468413,-0.08599648180038874,0.10366412154673603,0.09221363204941169
165,102.452,0.029025793211817405,-0.11058979876257367,0.014856306269162064,0.044773450894598374,-0.47362965486377,0.016519351360795468,-0.08397552292042659,0.10984828980821854,0.08162713332356258
166,102.458,0.029280362939911483,-0.11341080297675292,0.01496840179870256,0.040083125136757825,-0.46670508319594417,0.020845825152701815,-0.07545118439350071,0.1255216434454266,0.06543204903079843
167,102.465,0.02954453155399906,-0.11664467641962856,0.015127727920863976,0.035393621745353356,-0.4572587576250049,0.024675924036241772,-0.06117631957869071,0.14969468049022694,0.04615692036496062
168,102.472,0.029779736804111053,-0.11980595608021562,0.015309081810113364,0.03180787828673242,-0.4459640025439165,0.027139472892222967,-0.043293415859598734,0.17937517316165374,0.025617957061055328
169,102.479,0.02999421660632212,-0.12288092493372152,0.015502706423925074,0.02947206520210098,-0.4325985270285719,0.028181845339654732,-0.024759911937057375,0.21002460047110907,0.0047513024991416245
170,102.485,0.030168103928296813,-0.12543708307543114,0.01567080267845479,0.0284903754561271,-0.4194541868746008,0.02785023950358237,-0.008608253065733054,0.23675862499224543,-0.01602276407784416
171,102.492,0.03036683274477673,-0.1283141015627577,0.01585947515960014,0.028289286395236746,-0.4025510952181106,0.026056183680765087,0.002749573761668722,0.25570870676668794,-0.03624660190823968
172,102.499,0.030566148224584228,-0.13106941690904256,0.016030893140371733,0.028657993549837515,-0.38468186086431466,0.022920382254039952,0.007992616620841556,0.26490694992165065,-0.055114185392193066
173,102.506,0.030768557350546736,-0.13369861357201776,0.016176118096495457,0.029173185296551718,-0.3665171856994931,0.018572462352709353,0.0070173655767732015,0.26431630062214556,-0.0715613693538937
174,102.512,0.030944279420773584,-0.13585187126496065,0.01627376967460122,0.02940083811239515,-0.35123537861477333,0.013978063682543087,0.0007206766647474358,0.25512058097415824,-0.08460472440785949
175,102.519,0.031149036741863177,-0.13825117909549153,0.016350198589350107,0.02910125362744699,-0.33428114439355816,0.00785876910283794,-0.009448995420692044,0.23883677656829858,-0.09367938687525015
176,102.526,0.03134896619025956,-0.14053641745552087,0.01638208660109044,0.028021445914451947,-0.3186441013299644,0.0012520913944116313,-0.02201093120333974,0.21674454728888917,-0.09880450950220798
177,102.533,0.03153815944018978,-0.14271809622894474,0.01636690437521666,0.026033768351286277,-0.3046926910764092,-0.005589870215487733,-0.035899555577547336,0.189726287838156,-0.10053432427441955
178,102.539,0.031686719076889316,-0.14451552363563844,0.01631568890215569,0.023486110548557336,-0.2944497778214667,-0.011481954138168972,-0.05069670997453023,0.158435869301543,-0.09974079253172784
179,102.546,0.031837040919002996,-0.14654278584774955,0.016211640667593005,0.019462987198178176,-0.2847679970670036,-0.018246112879719893,-0.06651597880229204,0.12364038229321785,-0.09733127420858433
180,102.553,0.031955251184506706,-0.14851092016812578,0.016060929085806808,0.014311374374355559,-0.27755609446980667,-0.02481433905925038,-0.083574967467532,0.08647658927218382,-0.0940323465280478
181,102.56,0.03203316578675025,-0.15043760171076867,0.01586508134075405,0.007949940552356644,-0.2729243462849138,-0.031142159527211666,-0.10176380984886246,0.048468231258187104,-0.0903271141573548
182,102.566,0.03206124570554848,-0.15206986723313592,0.0156626187966379,0.0014100323803868595,-0.27116416117082115,-0.03634535517816857,-0.12053120329594359,0.011361412031232766,-0.08653231799520526
183,102.573,0.03203992989214193,-0.15396942620569654,0.015387843991599384,-0.0075002647822665375,-0.27156697384721,-0.0421617319757966,-0.139068067538938,-0.023097258228583474,-0.08292635975730168
184,102.58,0.03195191534690916,-0.15587957879135364,0.015073159263397714,-0.017646748141364202,-0.2741909077687189,-0.04774819036747325,-0.1565471777746404,-0.05335039781551458,-0.07983370296027582
185,102.587,0.031788887249320684,-0.1578147140576351,0.014720007927359224,-0.028932708312451698,-0.2787048825970225,-0.0531521913577377,-0.1722664383817267,-0.07816312553854653,-0.07761050917450994
186,102.593,0.031583693780077506,-0.1595023847703567,0.014387489881045322,-0.039465114768604787,-0.2838520216434849,-0.05768715741355901,-0.18573574911868343,-0.09679091233243016,-0.07653543790633605
187,102.6,0.03126147591282268,-0.16151410394489607,0.013965274372081391,-0.052597133018608244,-0.2909248853685244,-0.0629458451477228,-0.19686230570040758,-0.10927519659944851,-0.07667510899429367
188,102.607,0.03084487850092512,-0.16357772902405537,0.013506091597085393,-0.06643069895203836,-0.29868228010514497,-0.06824923342246884,-0.2061751647455285,-0.11673455149758005,-0.07783777693346963
189,102.614,0.030329294643737393,-0.16569710766316728,0.01300942534422594,-0.08087897453006364,-0.3068544739263969,-0.07365541025155939,-0.21477171686804,-0.12136026379164064,-0.07966982771925321
190,102.62,0.029805303533362915,-0.1675600653735285,0.012553238572997193,-0.09378472892808919,-0.3141314295273131,-0.0784068468246837,-0.22390184981120542,-0.1259873897875081,-0.0818340692324454
191,102.627,0.029093743560480348,-0.1697901509407976,0.01198444984009678,-0.10951812046719701,-0.3230358754075558,-0.08410421971850507,-0.23448656269105508,-0.13344140540334765,-0.08415745965950538
192,102.634,0.028269283428272035,-0.172084979093803,0.011375210410092906,-0.12604191730643832,-0.33262931116494127,-0.08996418885390595,-0.24693010979225236,-0.146060936881257,-0.08657126990947353
193,102.641,0.02732593341357054,-0.17445083094596384,0.010724397483806493,-0.1434866583223682,-0.34332836088052854,-0.09598236151350786,-0.2613180400686632,-0.16565319050255592,-0.08876667961887467
194,102.647,0.0264174487830072,-0.17654251148773026,0.010132739147720293,-0.15934155186539983,-0.3538984863749223,-0.10123708384855148,-0.2775983599602637,-0.19363108749225338,-0.08984417237249263
195,102.654,0.025233244449009748,-0.17907076561203356,0.009402691231542963,-0.17900254356288878,-0.3684598348555406,-0.10734803505953144,-0.29521969710203033,-0.23061014475139074,-0.08819685695783785
196,102.661,0.023907345988849443,-0.1817106333552431,0.00863098454203446,-0.19982558791121352,-0.3857880917752167,-0.11313959051416901,-0.3114544721988268,-0.2742442702094109,-0.08053865719788969
197,102.668,0.022433209386710496,-0.18448166314840858,0.007822314524027405,-0.22135629841389906,-0.4059347062714991,-0.1179089860591103,-0.3158373728442279,-0.31272228517517786,-0.058416484610049016
198,102.674,0.021052310946383393,-0.1869725997815324,0.007109070700717495,-0.23894318169511744,-0.42437750476974706,-0.11983895504418424,-0.2819502944093775,-0.3141584028697465,-0.007184204210763778
199,102.681,0.019325360190150936,-0.1900079899902512,0.006279293341764613,-0.254471320086233,-0.44287684057962,-0.1172402903712366,-0.17045811915651876,-0.22481510154955142,0.08289564704222606
200,102.688,0.01752903630758582,-0.1931343491615892,0.00549254391641984,-0.2587640749320052,-0.4503686369448839,-0.1075452597271093,0.04538978445450917,0.006543495321459625,0.19956663676141378
201,102.695,0.0157650742651006,-0.1962396187557315,0.0048005241071264375,-0.2452250800644338,-0.43685124709694656,-0.09017468578555149,0.3490654319427958,0.3872822642529145,0.30652067400892097
202,102.701,0.014384328674517308,-0.19875066560755436,0.004318479171389172,-0.2150234501299797,-0.40016437017730644,-0.07050695946019761,0.6775042914745775,0.859724509029798,0.36199597287025914
203,102.708,0.013074912004111188,-0.20128979992321386,0.003909395267952144,-0.15909559855721578,-0.3253025771534616,-0.04637415580744106,0.9519396229748436,1.3213550360832869,0.34110720282434775
204,102.715,0.012209527490993265,-0.20320774521792417,0.003655263594152325,-0.08815711947629973,-0.22268179276337904,-0.026234893849598262,1.1148351553895566,1.668475753373991,0.24564513819871622
205,102.722,0.011863977698751138,-0.2043459317782412,0.0035131630831417267,-0.01057139259300928,-0.10251436732762555,-0.014365252153483308,1.1456055188582392,1.8325720177350182,0.10017389265223173
206,102.728,0.01199473829942946,-0.2046409992610511,0.0034305910311139436,0.05415825948578187,0.004158539724330085,-0.013158765189110053,1.054590337313804,1.7932977424770686,-0.05916474870830224
207,102.735,0.01260509488466536,-0.20420764097563324,0.003307574745168591,0.12022933629577946,0.1196581132521134,-0.021988745080965506,0.870373897886665,1.571753335186726,-0.19809449860563105
208,102.742,0.013626964006080763,-0.20303497264384912,0.0030944605120224885,0.17173326982269813,0.21538998154310518,-0.03890103581787749,0.6301802749561611,1.217370613239622,-0.2946408460518908
209,102.749,0.014949610137464674,-0.20128541291463764,0.002745724979806443,0.20616562485891637,0.2844842268036916,-0.06073768767255224,0.37299774451498635,0.7956728757828364,-0.3415645234737003
210,102.755,0.01623129040503947,-0.1994751363782827,0.002320990171459034,0.22106113099933217,0.3189412853145974,-0.0808405817765789,0.13330855921480328,0.37554116472044496,-0.3417437113814199
211,102.762,0.017787092113121246,-0.1971955573242547,0.0016777030303039154,0.22345364273800086,0.3323670158358002,-0.1029557442676093,-0.06360333036741062,0.015614123380506495,-0.3025759956108353
212,102.769,0.01931919161058682,-0.19489666358742075,0.0008926356835847086,0.21428907082327905,0.3244597661162901,-0.12134921193771807,-0.20340417153079854,-0.2459898587817592,-0.23331306713436092
213,102.776,0.020760890851401495,-0.19270243855859973,-2.1868052264121824e-06,0.19762499798145558,0.30246167069054447,-0.13431435629436705,-0.2820994070713427,-0.39491912865532586,-0.14442315869682937
214,102.782,0.02189486687552261,-0.190961133616173,-0.0008249652557989263,0.1803670100589027,0.27797331011834137,-0.13994512722979388,-0.30450892919544953,-0.4374534815021405,-0.04696978845048453
215,102.789,0.023086932664492202,-0.18911523680410955,-0.001804405771004539,0.16022321536073666,0.24942577904226718,-0.1398950199716098,-0.2823754720789528,-0.3942716693190968,0.04842965083785959
216,102.796,0.02414674112282662,-0.1874518953584622,-0.002761922441706971,0.14257920130602386,0.22581463399949114,-0.133681171657461,-0.2316784477378539,-0.29363311374018747,0.13260925975981394
217,102.803,0.025096652219624312,-0.18592630081116554,-0.003657907648767754,0.12882396920795947,0.2100695223715582,-0.12231460178881386,-0.16907678608183546,-0.16509676060757394,0.19855289969793258
218,102.809,0.025845098636383925,-0.1846835137828271,-0.004352926485185191,0.12065816971190159,0.2041928204079047,-0.10935834368365611,-0.10848315185339433,-0.03465551509830886,0.24183731528058533
219,102.816,0.026669571539153513,-0.18324895260219237,-0.005058038452927141,0.1149055167935263,0.2056818026303001,-0.09210221852818573,-0.0591189466751168,0.07803663832720582,0.2609155588393249
220,102.823,0.027463754235447613,-0.18178051437892742,-0.005640517923632912,0.11200382500508674,0.21387197544595188,-0.07432048738796769,-0.025421115088901377,0.16058199045057184,0.2571507136897807
221,102.83,0.02824376424543184,-0.1802391691756179,-0.006101709797383634,0.1108561778473905,0.2265123683564477,-0.05744861939785884,-0.008015296724814363,0.20769268352756032,0.23440692438807725
222,102.836,0.02890776439999451,-0.17884231100064643,-0.006408223259037892,0.11047720700682483,0.23910702330069258,-0.04472253448688993,-0.004866126954208206,0.22040644458939465,0.19815957932686548
223,102.843,0.029679043083824387,-0.17711749303718277,-0.006678931754878574,0.10988813123012597,0.25369810911714047,-0.03262275003896382,-0.012296447907847874,0.20470117746699304,0.15436460281826686
224,102.85,0.030443671756034785,-0.17529664462861258,-0.0068757126305268815,0.10857720368741831,0.26654429333216656,-0.02360035728919803,-0.025897096930439862,0.16956917450387768,0.10850054480466996
225,102.857,0.03119562953058002,-0.17339546993182858,-0.007020062356955967,0.1062678747539233,0.2766484771771614,-0.01764242169051117,-0.041384621771908915,0.12481368508593826,0.06508241307690167
226,102.863,0.031824702501464915,-0.17171757587162376,-0.007117742003978019,0.10342311554103424,0.2826495428910928,-0.014917460650171488,-0.0553102812747972,0.0791657817021137,0.027540485342014046
227,102.87,0.032534156898538454,-0.16972481187003335,-0.007219061580228968,0.09927814076554686,0.28671160042004046,-0.01403098970722168,-0.06545251818080314,0.039181244592573515,-0.0017133769746110238
228,102.877,0.03321271637238381,-0.16771202401668267,-0.007320011299944127,0.09459599461909454,0.2883706433951953,-0.014811787354290453,-0.07096063430707791,0.009154555972991626,-0.02103496644744881
229,102.884,0.03385774800266275,-0.16569328946904938,-0.0074297879916913985,0.08969875688904451,0.2884106559281927,-0.016552981716336065,-0.07171915746822716,-0.007988800869570808,-0.029694294150334134
230,102.89,0.03438366913290823,-0.16396447731172556,-0.007534257280582698,0.08560828652610854,0.28786006317972856,-0.018270114580762258,-0.06731814079148475,-0.010726144208993288,-0.028671979906084336
231,102.897,0.03496789930559726,-0.1619508341274262,-0.007668090069665071,0.08131461995635128,0.2874665609053963,-0.019967825157031556,-0.0577767567599343,-0.0007384457618639721,-0.02079039151004898
232,102.904,0.03552473879894762,-0.15993662833125602,-0.007811499590886995,0.07778237814395902,0.28802080942969355,-0.02100632376357198,-0.04513422164748453,0.01688633736888561,-0.00946600466839815
233,102.911,0.03605982015224628,-0.15791408914197336,-0.007959353990549353,0.07509800851269184,0.28984753036493965,-0.021237790425642836,-0.033074213627566275,0.03633471846698129,0.0027222815804733413
234,102.917,0.03650527049200193,-0.15616708182436967,-0.00808525539079021,0.07338543807252125,0.29248824216959723,-0.020729342987974554,-0.02513698116272163,0.05342450290006688,0.014560121607440359
235,102.924,0.03701314274116317,-0.1541053163674348,-0.008225489344089957,0.07172091883058722,0.2965876026685146,-0.019337500811924476,-0.02335836906049706,0.06600933605948589,0.025990850758951946
236,102.931,0.037509034201362305,-0.15201245502306096,-0.00835321109367678,0.06996235551220795,0.30137278143908364,-0.01715442764150149,-0.027876931719559014,0.0734056460648987,0.03761243798391592
237,102.938,0.03799092172405497,-0.14988493302715433,-0.008462764499826487,0.06771979382845648,0.30649064596237624,-0.014146545544107018,-0.03745953992394978,0.07570205194145199,0.050021451771427174
238,102.944,0.038389493877610384,-0.1480328306734858,-0.00853764697034191,0.06513759069000985,0.310876805260445,-0.010814277961033094,-0.050310940258597676,0.07338587302336094,0.06324412424327709
239,102.951,0.03883166519617645,-0.14583979020484902,-0.008596565880561553,0.061197071757603916,0.3157061857794603,-0.006019696387458222,-0.06449508953929076,0.06731691594481518,0.07644480618603595
240,102.958,0.03924292044743545,-0.1436147208935961,-0.008618962181389717,0.05630442860202635,0.3200279031494951,-0.00037924670629843095,-0.07805084046226264,0.05859523463031743,0.08788827919569876
241,102.965,0.03961694907908781,-0.14136168332781998,-0.008599620637869867,0.05056089472714265,0.3236971156432201,0.005905401997680371,-0.089285577023528,0.0483063501899658,0.09521338298468206
242,102.971,0.03990384302185225,-0.13941192053918638,-0.008547302872811047,0.045070419527666244,0.3262238139012828,0.011533853021925743,-0.0973386422384421,0.0375774891116847,0.09610070912781847
243,102.978,0.040195345025162005,-0.13712051322159718,-0.0084443128670511,0.03821586713237328,0.32846399112506564,0.017891862909526643,-0.10236702091001862,0.02768951188940855,0.08913831271987128
244,102.985,0.0404379629174835,-0.1348155552997989,-0.008299414317367023,0.03110353067371894,0.33009541510254553,0.023507722714465624,-0.10484911620537204,0.019841616112762774,0.07447835279165019
245,102.992,0.040630534332938485,-0.13250070170679126,-0.008119430818463357,0.023916873741952133,0.33129132575631004,0.02791613411511657,-0.10453232923541611,0.015000940541975951,0.053959606600272575
246,102.998,0.04075597815525803,-0.13051038236077334,-0.007944466978367683,0.017897733697893825,0.3321484562496383,0.030405145916772427,-0.10006149380160739,0.014133388147508507,0.030643249681120224
247,103.005,0.04085846019528825,-0.128181429184705,-0.007726981473466511,0.011382849167922546,0.33326673691362474,0.0317335697693584,-0.08974803136695096,0.018447438244725174,0.008060045752888349
248,103.012,0.040918621308329045,-0.12584281113317813,-0.007505146482887475,0.005806040272292541,0.33490984923642914,0.031647856110320824,-0.07273089570588867,0.02942422676402593,-0.0105572916898659
249,103.019,0.040944581057563725,-0.12348906840010192,-0.00728764862661348,0.0016110309376100706,0.3375880744991517,0.030494388539347547,-0.04948964807029449,0.04860519387606841,-0.023048696403416388
250,103.025,0.04094795638019581,-0.12145246459032343,-0.0071092717253200205,-0.0004859233935820585,0.34127986209365363,0.02896457855846992,-0.021786962909399556,0.07688066162340755,-0.028950371605793904
251,103.032,0.04094283619062778,-0.11904067093854566,-0.006913557565905922,-0.0009769879115710143,0.3478040384151856,0.026953752702774576,0.0074799214633370255,0.11319957755949521,-0.02963453486650482
252,103.039,0.040941053424167304,-0.11657401585395633,-0.006731782886140958,0.00046762606571982613,0.3569545571812637,0.024981870087178056,0.03460854408343286,0.1533984893811315,-0.027815770082399674
253,103.046,0.040955166844572594,-0.11403405648529316,-0.006563445601207569,0.0035647797643603716,0.3687481195791233,0.023114497036612898,0.05562625136188326,0.19020399021474566,-0.026589674927257032
254,103.052,0.04098736926523694,-0.11178582232361528,-0.006429616539759336,0.007169360457086876,0.3806632676468075,0.021495190112796294,0.06689539441679304,0.2147983319402467,-0.028451442539514416
255,103.059,0.04105349698076541,-0.10906903549996223,-0.006286734141142995,0.011724272551071242,0.3955615391122256,0.019328352349069048,0.06581082589552735,0.21925906687841723,-0.03467883170529753
256,103.066,0.041149651057089634,-0.10624988855510285,-0.006161021284228844,0.01574832068440136,0.40990901656130685,0.016589606769234346,0.05142880620039723,0.1987510865545233,-0.04511383317976207
257,103.073,0.04126903820535396,-0.10333830076200218,-0.0060573135043973875,0.018362293105450667,0.42197321003998073,0.013041187468363422,0.02472862402887855,0.15273616163754972,-0.058268472292999265
258,103.079,0.04138037084643674,-0.1007854848397289,-0.005990547081861321,0.018748587255474538,0.42896543071774645,0.00921428671032436,-0.0115982771036167,0.08493319802368143,-0.07180995265466096
259,103.086,0.04150375648476401,-0.09777226162841447,-0.005944689701616303,0.01650445226657799,0.43195548680004625,0.0038878219311000673,-0.0537840323903037,0.0021813352572377905,-0.08337526143753994
260,103.093,0.04160106876921433,-0.09475878620946955,-0.005938467213675661,0.011299057576350895,0.42903749004074526,-0.0021099682337751453,-0.0978738350545534,-0.08719643825364157,-0.09136884922412992
261,103.1,0.041651522216044595,-0.09178701124310926,-0.005975670223536147,0.0031162129466014623,0.42004107177759653,-0.008519463154949067,-0.14053128886675648,-0.1749119492228032,-0.09537017615099393
262,103.106,0.04164197477520713,-0.08930460977878393,-0.006043682736868211,-0.006298693225755388,0.40742608299748173,-0.014151374622404832,-0.17948646005383967,-0.25387833696443834,-0.09606153829636416
263,103.113,0.041550660337601485,-0.08652145119700726,-0.0061656694310722165,-0.01979114609012616,0.3877620832238557,-0.020701966578714606,-0.2136127667641469,-0.3190273596397464,-0.09478831377355318
264,103.12,0.04135729691729208,-0.08388962089822923,-0.006333128508877208,-0.03545554542680781,0.3641894307121863,-0.027143484222677476,-0.24276557524052653,-0.3677559531895961,-0.09288368559009343
265,103.127,0.04104780772905546,-0.08143251808650866,-0.0065452241585931634,-0.052969936926627825,0.33783994406604134,-0.03345527283910372,-0.26751182398326717,-0.3999297250033973,-0.09100869112613041
266,103.133,0.040680889283497855,-0.07947762179052513,-0.006761833186015906,-0.06933621159256827,0.31379215459510823,-0.038747736301807556,-0.2887866967803581,-0.41746763532291903,-0.0888850021909432
267,103.14,0.040123895421298635,-0.07738213658669879,-0.007054030573333678,-0.08980489189281048,0.28491790364056213,-0.04473723150321048,-0.30756316494547026,-0.42377641713202446,-0.08561743679247678
268,103.147,0.039419288793146406,-0.07548947865729817,-0.00738713232318733,-0.11151128757911158,0.2558415047592284,-0.050434697026336336,-0.32484722381508896,-0.4233571644190642,-0.08037679083066775
269,103.154,0.03855859607283004,-0.07380008491499104,-0.007758579528088894,-0.13440091822588704,0.22684242161487306,-0.055693075802821554,-0.34203641845988575,-0.42152384254759334,-0.07282475466556287
270,103.16,0.03769014092726058,-0.0725136398115599,-0.00810470714661018,-0.15508413029725548,0.201972612862162,-0.05968279703760274,-0.3609971377279273,-0.42381439741236937,-0.0627880262800552
271,103.167,0.03651512685250433,-0.07120300574063775,-0.00853597765057248,-0.18063417677571825,0.172494264543897,-0.06353734695153762,-0.3833970518837719,-0.43502988007117316,-0.0495133177476379
272,103.174,0.03515539797678947,-0.07010289080652898,-0.00899045836134707,-0.20785978771396535,0.14182428805838057,-0.06631428469825244,-0.40981428760022665,-0.4585321848977004,-0.031392066331033024
273,103.181,0.03359835335398942,-0.0692248304584917,-0.009459211569659584,-0.2370101045152054,0.10905009709545828,-0.06761520339121317,-0.4394728739913873,-0.4963356405928861,-0.006509873182677319
274,103.187,0.032095961261044734,-0.06866284800979656,-0.009863145511678302,-0.2637872597996702,0.07827738580291292,-0.06702944394835479,-0.470697105375125,-0.5496454468169902,0.026420153208930406
275,103.194,0.030132673193827994,-0.068255235339029,-0.010321049174288045,-0.2971521879761404,0.03818337727345023,-0.06380017394004964,-0.5013817005210589,-0.6184834257755593,0.06766381774963474
276,103.201,0.02792926954727728,-0.06814598667576764,-0.010745195507922413,-0.3323917110391776,-0.006969473484451802,-0.05738449281278646,-0.5253129567656808,-0.6970335450834698,0.11925544118680466
277,103.208,0.025476947190098506,-0.0683696873759207,-0.011109630869247229,-0.3682718195828278,-0.05694501227351939,-0.04673989613708638,-0.520044997672658,-0.7589912307874773,0.19087221055075446
278,103.214,0.023182616350141055,-0.06884384827594946,-0.011347142492114982,-0.39650512706962665,-0.10110862106939508,-0.03243064481882814,-0.43962038200330267,-0.742153699638102,0.2955069749426846
279,103.221,0.020325835859007036,-0.06970901994690316,-0.011487517361212916,-0.4197178703966526,-0.14608328491720052,-0.007676460637695896,-0.23667706708945915,-0.5681718403278047,0.42569996644372304
280,103.228,0.017370512311061573,-0.07082418055019028,-0.011425693170838778,-0.4246602861603046,-0.17253403030810993,0.02534051503033032,0.09268102464716627,-0.20246398597211035,0.5362413304770879
281,103.235,0.014467602326343025,-0.07201932925032604,-0.011116050990825507,-0.40474256661583086,-0.1689370268732917,0.0631286792591121,0.4876167337823401,0.30726177798979104,0.5647073473153077
282,103.241,0.012157409805050631,-0.07293046788421771,-0.010645647553522297,-0.36532160714827117,-0.13477585109058393,0.09367246650861882,0.852322982891489,0.8538950486773674,0.4734924881536707
283,103.248,0.009835408560174836,-0.07361253221627936,-0.00990034797629014,-0.29810731995862494,-0.060099672355464276,0.11927026984327428,1.105948399708167,1.321776670733624,0.2722930854734719
284,103.255,0.008026821227899715,-0.07367944857063531,-0.009031599941374207,-0.2186319178349465,0.04098071396802376,0.128943454418747,1.2095474882507475,1.6231750077883413,0.009532718605114418
285,103.262,0.006781589329156498,-0.07299188961191985,-0.008157974728707603,-0.1371486246628612,0.15546470280768243,0.12066374920010446,1.1644478013021022,1.7122872649573935,-0.25075985146573515
286,103.268,0.006149674526920257,-0.07176793120495835,-0.007495989720811793,-0.07348964274921102,0.2525214328461376,0.09999792009849069,0.9993553973317423,1.5867234416703033,-0.4516828481857935
287,103.275,0.005846219894258972,-0.06965550871593566,-0.0069174728037716135,-0.013211680868237215,0.351027849731341,0.06529262762715665,0.756827888818275,1.2832362834763498,-0.5594471349323454
288,103.282,0.005902507400693296,-0.06693994199656593,-0.006595917323099911,0.02929382556377936,0.4248483558038888,0.026580366850593437,0.48155936974235164,0.8675056277382691,-0.5684248637803109
289,103.289,0.006190985699300835,-0.06381154676274808,-0.0065375627589468925,0.0531285454668872,0.4689788538577123,-0.0099076342354572,0.21285921074248887,0.41822535375437714,-0.49464388726470354
290,103.295,0.00652693620198369,-0.06095995082304832,-0.006672817653851361,0.05885495542739366,0.48155312604217204,-0.03517733073269719,-0.018215441446271567,0.009180953341972282,-0.36428675324416976
291,103.302,0.0069138971717332635,-0.05762467153813884,-0.0069874559696420525,0.05170532164383398,0.4713838125027139,-0.05471933092172184,-0.19008734386645207,-0.3054613502286595,-0.20506451609159987
292,103.309,0.007217886412571272,-0.054421584087837364,-0.0074001946663796074,0.03514874716713981,0.4437840304417685,-0.0632060110034489,-0.29228429685594254,-0.49865137097820833,-0.0421927774428376
293,103.316,0.007389630826437974,-0.05144345984816181,-0.007835263165665136,0.013921085366168501,0.40710860946492505,-0.061099274506613156,-0.32617830034540674,-0.5698778115318298,0.10357201636552897
294,103.322,0.007417634556170857,-0.04909864576542864,-0.00817353589355644,-0.004586508788541249,0.3744960847794339,-0.051658301457150536,-0.3029048270803384,-0.5386395273994026,0.21733175979528244
295,103.329,0.007320391044168981,-0.0465941993124637,-0.008474110826526542,-0.02319735178345987,0.34106004464006257,-0.03422025082013434,-0.23931741118052416,-0.43551110768467177,0.29072146755668604
296,103.336,0.007110753060191882,-0.04429436476018174,-0.0086401012609518,-0.03669921506709701,0.3160355417257421,-0.013205587587048838,-0.15405598584022898,-0.2935715021275493,0.321535469844261
297,103.343,0.0068276432345350975,-0.042134438397238676,-0.008656401766348822,-0.04418930654906929,0.30108627625754875,0.008548300330760487,-0.06416594904118676,-0.14197159415865013,0.31225859315799553
298,103.349,0.006558363094165962,-0.0403407269277202,-0.008553864658313537,-0.04557074024063924,0.29681754691525425,0.025630735680999994,0.017210271292927425,-0.0031248231464220256,0.2683826163015331
299,103.356,0.006251208242718312,-0.038250497920234834,-0.008318456771631445,-0.042187788744518874,0.3003907409384938,0.04162866051397225,0.08135117123039877,0.1072289339355085,0.19771290730433796
300,103.363,0.005980546964730231,-0.0361132644596374,-0.007990054607782588,-0.03514400496630614,0.3102473906603386,0.052200529157062345,0.12386770075101047,0.1799420811217005,0.11029583146206869
301,103.37,0.005766802530787413,-0.03389430885240312,-0.007609284575429717,-0.0259258333030268,0.323739925691859,0.05659090865796593,0.14470141636478778,0.21315953961556328,0.017616773057763456
302,103.376,0.0056370081290291,-0.03191434701810369,-0.007274284704457322,-0.017338967283076066,0.336247352407927,0.055075714999494735,0.1471708002756352,0.2119746538846828,-0.06911902436924204
303,103.383,0.005549674725162,-0.029512801261270438,-0.006913963333860239,-0.007613433821842349,0.34990857811676124,0.04787324802837857,0.13618017544700523,0.1860417273858167,-0.14072304259918217
304,103.39,0.005526800303650827,-0.027023513623088864,-0.0066187139337101145,0.001077884818654581,0.3613164613631801,0.03648372344302536,0.11703921112058537,0.1463240869605907,-0.1911078967661631
305,103.397,0.00555983890334196,-0.024464379058748324,-0.006412405107285367,0.008361715093091198,0.3698648427335944,0.022461655535431904,0.09517335526276272,0.10273085812865801,-0.217421531372132
306,103.403,0.005625082502010384,-0.022230556917638457,-0.00631618265739835,0.013386151129715682,0.3747425376363335,0.009612494426905687,0.0756099409911158,0.06306462768076417,-0.2193283988121726
307,103.41,0.005735311494006497,-0.019595885264402823,-0.006299060078353083,0.018107846583501036,0.3780207918605526,-0.004720328985394373,0.06195547063675386,0.03244648611077955,-0.19825481293900543
308,103.417,0.005876223792007978,-0.016944298077920025,-0.006374827067147962,0.022152809988321885,0.37957554713399094,-0.016927382098841245,0.05589352264311121,0.012850918447417804,-0.15739461484543962
309,103.424,0.00604494103264213,-0.0142853131039268,-0.0065245023164115816,0.026052115907115737,0.3801344454349587,-0.025836974833590903,0.057711776349804435,0.003432443235504375,-0.1021841326587916
310,103.43,0.006212281137207603,-0.012004003311107266,-0.006692081349172713,0.029727918948039878,0.38030215217152413,-0.030022702753450724,0.06723075553498808,0.0022679993745411357,-0.04009102144105095
311,103.437,0.0064385960257689065,-0.00934056628796021,-0.0069045677881185655,0.03493347778384618,0.38067985444292163,-0.030687708374015642,0.08443189425041696,0.008736261477547707,0.020716249640697047
312,103.444,0.0067064295330198954,-0.006671860654448362,-0.00710814520473524,0.041590381430667345,0.3818074694170613,-0.027477267802135327,0.10951532223217138,0.024116517697482635,0.07281913041490724
313,103.451,0.007027764934467037,-0.003990411492030946,-0.007278481827786748,0.05021973326863672,0.3843208627032083,-0.02119033878407396,0.1418986771015381,0.0491105646875847,0.11034896814415025
314,103.457,0.007357330178405271,-0.0016730434603809733,-0.0073844654092173586,0.059635348044103795,0.3881351478467532,-0.014137521692794842,0.1781431576217268,0.08053904870552861,0.12938009636067904
315,103.464,0.007821489309504413,0.0010668232038151823,-0.007452497102226589,0.07298154655555601,0.3946838990658747,-0.005300104881257005,0.21069498534227293,0.11025717394854005,0.1280958237411039
316,103.471,0.008385201784943388,0.0038580879321238695,-0.007461384542158804,0.08807916071260742,0.40282030902175175,0.0027608363291973404,0.22917021274971036,0.1267950874068007,0.10675767466336321
317,103.478,0.009056114755497773,0.006707285642533861,-0.007421117792273632,0.10361025944604038,0.411236179667888,0.008743949352295489,0.22332444964638642,0.1183991909989553,0.06755882115779657
318,103.484,0.009713888511281417,0.009191872257753333,-0.007361422885817865,0.1156476591484993,0.4169593587385715,0.01115435279962613,0.1858332716433661,0.07613475860609978,0.014372094677565176
319,103.491,0.010559440233498658,0.01211927810354236,-0.007287319144175929,0.1259385471991112,0.419442311486267,0.010018144812340568,0.113989168103557,-0.0037945536666314427,-0.04747522913325888
320,103.498,0.011455945158240114,0.015040629068941528,-0.007236276166751116,0.13020571701255054,0.4152293929128991,0.004565563023309678,0.010333753104756456,-0.11894777128239697,-0.11138437237699893
321,103.505,0.012354503532445053,0.01790160263877641,-0.007238098728266933,0.12652524704634116,0.4021916270409994,-0.005086294884972388,-0.11756332155981279,-0.26090426416342954,-0.16982008460721262
322,103.511,0.013080493645331622,0.020254931912680525,-0.007302569710570185,0.11547145724917281,0.3822514642603427,-0.016404032549444076,-0.25816096747425876,-0.41687264506503585,-0.2148759350825306
323,103.518,0.013809992044821572,0.022811854288468363,-0.007471947409417807,0.09295665689066386,0.3482977859642321,-0.03198959569269916,-0.39780208845478227,-0.5723592477565651,-0.2392055342191005
324,103.525,0.014350068809371338,0.025095399644014804,-0.007753136526571102,0.06135099012344474,0.3041437441914271,-0.04835015206532749,-0.5230210779591608,-0.7140576740777718,-0.2374551682522294
325,103.532,0.014641887753865768,0.027038675134395427,-0.008145067553160877,0.022025851160787792,0.25107782448948096,-0.06363014124618435,-0.6227069728375269,-0.8320045738288141,-0.20772348037255858
326,103.538,0.014658200768510774,0.02839045920849385,-0.008558628390727225,-0.01658817961245273,0.19951686687664272,-0.07422347127592635,-0.6898048014258238,-0.9205802406537494,-0.15234953231922366
327,103.545,0.01437252250127203,0.029559063492005617,-0.00910571609211558,-0.06503418245570151,0.13437007126933803,-0.08208730054920645,-0.7216573286656133,-0.9774552937542613,-0.07676115928215993
328,103.552,0.01374463454249908,0.030262344957609127,-0.009687673500249037,-0.11436237719358402,0.06656749033152136,-0.08418624463166233,-0.7155072407948265,-0.9979558795026094,0.015608950396079518
329,103.559,0.012779063663898743,0.030492541535906352,-0.01025967208161764,-0.16151501669258939,-0.0007970393893704936,-0.0792419214738677,-0.6582730729738155,-0.9646927815293136,0.1284426634956929
330,103.565,0.011705664049912272,0.030328152372368213,-0.01070027628412091,-0.1962848546362208,-0.05399934845667395,-0.0676261460272167,-0.5235725094840101,-0.8436824559303503,0.26638382147965756
331,103.572,0.010233602593996652,0.029776274761078237,-0.011091446914841499,-0.22430413276794148,-0.10367996905463484,-0.04413689132144286,-0.29276212442550614,-0.6037499524842133,0.4179697172125871
332,103.579,0.00863003567581546,0.028947943880646337,-0.011284281817753232,-0.23385784385585903,-0.13298599678336237,-0.01095879522483905,0.014417150412096087,-0.2500738078873156,0.5486657829443025
333,103.586,0.007035385641644124,0.028006761728341878,-0.011220982263246061,-0.22175645162133997,-0.1359231895891485,0.029044382226874624,0.3381538741917747,0.1644994328958841,0.6168167490018795
334,103.592,0.005788551479892884,0.027255414920794207,-0.010939613229639303,-0.1938549356290575,-0.11452574626006584,0.06474529564204135,0.6102337332746351,0.5628112297354886,0.5966765919169652
335,103.599,0.004599082322488445,0.026626484627640844,-0.010356052267563623,-0.14599339505768236,-0.0651686232121946,0.10198640780803372,0.7842002352595725,0.8751961587737946,0.48833386136774526
336,103.606,0.0037726579631769557,0.026402404514804006,-0.009545801351217452,-0.09012785046019661,0.0011457338301567171,0.12951385400546248,0.843428381111075,1.0568559849228238,0.31367137261604483
337,103.613,0.00333859562985771,0.026668468712202582,-0.00858862416494651,-0.03388995905949924,0.07487260828366764,0.14396534207175463,0.795048465887272,1.0911579925737365,0.10736910403665874
338,103.619,0.003263807290415884,0.02730113696194125,-0.007723523850521939,0.008960512578891494,0.1360168082958801,0.14440142940309117,0.6614622228932705,0.9871664101601277,-0.09254625996872085
339,103.626,0.003462862394586818,0.028464959789567174,-0.006754312575026518,0.04791237432704889,0.19650399959700357,0.13251607788111683,0.47339048997080097,0.7751127226172738,-0.2537304727138644
340,103.633,0.0038868327562106898,0.02999357485682095,-0.00589991663129167,0.0732220147085025,0.2402431624760782,0.11159704890058932,0.26399952836185814,0.4992168068093956,-0.3557401847497674
341,103.64,0.00443875826201167,0.03176025109247608,-0.005208470277668169,0.08447098694880786,0.2645214762821696,0.08595905213455557,0.06373645371727996,0.20812577067116464,-0.3912164144097077
342,103.646,0.004942063372487102,0.03336093149854652,-0.004759339395962578,0.08329738320966286,0.2690386590746231,0.06375124176730235,-0.1036278790645346,-0.054584286322845996,-0.3636390617978447
343,103.653,0.005485863049051515,0.03520669086953746,-0.0043909753471206665,0.07207395295148705,0.2583211612081256,0.041495629330311534,-0.22336394377777266,-0.2576673233061833,-0.28477261910891344
344,103.66,0.005928666643752427,0.0369376386511802,-0.004155425862413667,0.05444135982036852,0.23623534783330782,0.02580422344320527,-0.2903572302984696,-0.38579730455484784,-0.17239255196310424
345,103.667,0.006237882192406309,0.038492242419492576,-0.00400118780238479,0.033905939794963064,0.20793715739848165,0.01826379370787102,-0.3079370765644618,-0.4386633692825398,-0.047295975292201704
346,103.673,0.006388950247272573,0.03966349229481259,-0.0038895832705951434,0.016450078493789697,0.1824794677081762,0.018937716888676553,-0.285397082778865,-0.4266572614562781,0.07020298841783613
347,103.68,0.0064415809186402885,0.04084563023007087,-0.0037289561232016068,-0.0014127438173104287,0.15527422807966326,0.0269557537951583,-0.2350317606542678,-0.3659605650329917,0.1634005038618493
348,103.687,0.006383081484068501,0.041855538796530055,-0.003494009648591742,-0.015301380346079349,0.1332710766233402,0.040171810379177095,-0.16961017776178347,-0.27509572858561004,0.22164598672030464
349,103.694,0.006243524962903178,0.042734649059668624,-0.0031571340351373768,-0.02457191141541312,0.11790328427321488,0.056078364893429974,-0.10048441750417372,-0.17264104333124078,0.2417874855879617
350,103.7,0.006084032358330172,0.04342021259846681,-0.0027792022075905295,-0.028592290108920136,0.11061789532617221,0.06989891095551426,-0.03617042703182531,-0.0749932642404035,0.22798034413587429
351,103.707,0.005881711753783261,0.04418620009449229,-0.0022397514817272166,-0.029213596904558808,0.10823567496711066,0.08422986786277789,0.01806880952476959,0.005587872153993324,0.18954848745966815
352,103.714,0.005686529838395663,0.04495195646190829,-0.0016108369247487524,-0.026552664634715072,0.11055185858016178,0.09546000555951206,0.05945678410934115,0.06189355591630203,0.1376387549210821
353,103.721,0.005518249454575623,0.04574428952161519,-0.0009162103728835861,-0.0215274450281192,0.11582901562164764,0.10300472354467935,0.08695172750827931,0.09185508961598161,0.08217470941651085
354,103.727,0.005405701776631753,0.046456035444516375,-0.0002882685826335077,-0.01598844761983608,0.12141962534540443,0.10630920653867217,0.10132178785401431,0.09817275624223952,0.030146453399629045
355,103.734,0.0053185929156602954,0.04732824958921118,0.0004577640703753612,-0.008899798372041533,0.12778441599629634,0.1068429800355708,0.10520422832025443,0.08726382144157036,-0.014595096575452418
356,103.741,0.005281222697693801,0.04824132944697786,0.001197849228610721,-0.0017774067612351266,0.13309554336542465,0.1046099223172381,0.10230486312866231,0.06747454105806053,-0.050464479421625213
357,103.748,0.005292639772146288,0.049186747956938115,0.001914805168984655,0.005039428033371984,0.1370240309087412,0.10023463207516808,0.09630190719270826,0.04698095723904972,-0.07700850333036706
358,103.754,0.005339372705519155,0.05001587983917081,0.002501107475533487,0.010538216424249599,0.13935326316881327,0.0951994701077685,0.09060488193770856,0.03219090607383695,-0.09413937310719976
359,103.761,0.005434724048706655,0.05099852393212279,0.0031439587758982424,0.016705024486500596,0.14140219196069467,0.08847232999668897,0.08906352273110907,0.02750411987820558,-0.1018541651285421
360,103.768,0.005573894873520798,0.05199594426836767,0.003738956202504007,0.023058068317511598,0.1435750469662091,0.08152693474769367,0.09603081430422516,0.03580146519527222,-0.10049818175532452
361,103.775,0.005760597285834304,0.05301221463360858,0.004286580710304143,0.030285478057737913,0.14678791453098453,0.07493721033794754,0.11453795397972064,0.05780462468901559,-0.09149178452095366
362,103.781,0.0059650993954318415,0.05390600575105655,0.0047212545268671986,0.037881891808105375,0.151142457951661,0.06995406184973212,0.14366825474487516,0.09020865951698473,-0.07788812564936361
363,103.788,0.006268804926793773,0.054989801865334184,0.005193868037346798,0.048891117152560504,0.15851357469949817,0.06507836971604537,0.17708276171464435,0.12454697635537486,-0.06416394058537513
364,103.795,0.006656786194528793,0.05613216400464544,0.00563506271032263,0.061960673628794434,0.1678756079606281,0.06097725113410231,0.20369548500640983,0.14821351229622437,-0.055321119681750755
365,103.802,0.007140261274331325,0.057342819592680144,0.006048564844715565,0.07617506345754464,0.1780259886204673,0.05716621583522313,0.21043719402086986,0.1475152798960115,-0.055712436960977794
366,103.808,0.007632315530197215,0.058433844482303335,0.006380650724484765,0.08784302183107891,0.18564897458724983,0.05352907742117241,0.18616301684059747,0.11159413282502419,-0.06791586336076263
367,103.815,0.008284619230160701,0.0597510788164317,0.006736150211606443,0.09852946387301935,0.1907036923070639,0.048042204613726415,0.12518378913740152,0.03567379891577633,-0.09194279836231639
368,103.822,0.008992849701505486,0.06108096757383232,0.007046375345940761,0.10382209936820316,0.18926452409284183,0.04059354805315833,0.02901581725738557,-0.07760360352273878,-0.1250719404865481
369,103.829,0.009711773057234056,0.06237017759623436,0.007295990210285101,0.10158457369737266,0.179081196593939,0.030724984616747105,-0.0942055659289052,-0.2190850865546568,-0.1624461776541075
370,103.835,0.010292476728235574,0.06339217867602318,0.007448508902900438,0.09198331663645928,0.1615858300023196,0.02011457958836313,-0.2321463504038217,-0.3755918789608773,-0.1982072234694013
371,103.842,0.010863858596326013,0.0644141394119439,0.007538281350597411,0.07126864567497804,0.1304029516891081,0.0055346911821823625,-0.3713703874793334,-0.5329134519898913,-0.226574164850051
372,103.849,0.011258076403039536,0.06518143732755116,0.007520675363510257,0.041365013385947856,0.08882502419852456,-0.010564973207079999,-0.499864431721597,-0.6784490269854928,-0.2424855151848774
373,103.856,0.011414493838839669,0.06562523165662144,0.007388506599480135,0.003325682557006042,0.03797335553600864,-0.02719753080157572,-0.6084019219113781,-0.8031015727921456,-0.24209987459851595
374,103.862,0.011319753071821575,0.06570254942447157,0.007184223015741886,-0.03490593822970313,-0.012200766252635525,-0.040896997111171396,-0.6911115302429499,-0.9023439425347763,-0.22355238890278686
375,103.869,0.010902848899223013,0.06539151984949411,0.006848583900429498,-0.08420953965551484,-0.07666482659800193,-0.05499989297801375,-0.7453365192446492,-0.9758002714226721,-0.18733194153573549
376,103.876,0.010131697852761619,0.06461481040970736,0.006425082361478645,-0.1361193307618691,-0.14525215619805504,-0.06600054672214363,-0.7670422122813254,-1.0224743570911892,-0.13316934349962392
377,103.883,0.008997913351181113,0.06335176254435594,0.005940686911786523,-0.1878190982615583,-0.21561866247425196,-0.07239815319007341,-0.739217534195583,-1.0276361372101122,-0.053223314774919914
378,103.889,0.007750377510980978,0.06188346088913226,0.005507383367452039,-0.22802618180513773,-0.2738152226002888,-0.07203636158808262,-0.6274429646692318,-0.950496392791966,0.06552080685056162
379,103.896,0.006030571387276618,0.05976366049902379,0.005037505124750287,-0.26334699639575687,-0.3318420317159836,-0.06221456489803621,-0.40162010086265365,-0.7401001227110959,0.22063477387532748
380,103.903,0.004130351100317934,0.05730618181980494,0.004673871871076022,-0.2795730855920508,-0.37029473377461597,-0.04168065043739399,-0.0711229341852057,-0.38020969791659504,0.37761566873621083
381,103.91,0.002201459428501044,0.05467864982057859,0.004485510049310195,-0.27153882064207135,-0.3804286945767574,-0.012137012924341734,0.305199226438494,0.08495929415545178,0.4831307930478445
382,103.916,0.0006562790915768618,0.05245398442511315,0.004499100998970152,-0.2435212916659698,-0.3611264372450278,0.01666732947766069,0.6471317250451242,0.5711348641190812,0.4959443720017676
383,103.923,-0.0008636567515419298,0.0501136423533888,0.00472416350274045,-0.190746092081946,-0.3075427261043094,0.04763624302809266,0.8904604652102078,0.9900131073574209,0.40632714930294
384,103.93,-0.001971202126561637,0.04823248912699827,0.005134729429281586,-0.12569544363774424,-0.22992962429260047,0.0696683074121481,1.0047738457392952,1.271225128552569,0.23557151520502748
385,103.937,-0.002611387622846437,0.046940596001145064,0.005653624210483188,-0.057214698158153485,-0.13918269738022937,0.07858734435993306,0.9903954811877197,1.3726638043214203,0.02428238707547151
386,103.943,-0.0027906926655834065,0.046340272500213636,0.0061112290348115895,-0.002553649420834095,-0.060925136263573446,0.0739475970828618,0.8675631060062529,1.2873529909706505,-0.18198990449379068
387,103.95,-0.0026240690586605284,0.04619394809974679,0.00656556637705314,0.05016039425590817,0.01911816470164819,0.055863072128917,0.668247322244099,1.0446884871564934,-0.3448981897784452
388,103.957,-0.0021409156810597765,0.046537596618863114,0.00686220620962015,0.08788342791591688,0.07906712647457363,0.02889116574748325,0.4308037927808613,0.7019094634471218,-0.4409215311388983
389,103.964,-0.0014507615870125083,0.04721478831937728,0.006955766881104319,0.10930345609744738,0.11441621652933513,-0.0021595453234540124,0.19326335062300046,0.32797740063377484,-0.463733140389826
390,103.97,-0.000779073540907184,0.04792903637507985,0.0068646679754555,0.11459255927098558,0.12366646870484616,-0.028206756559484614,-0.013483875350676902,-0.01355633005035507,-0.42162564628484944
391,103.977,1.1296357043520016e-06,0.048759818175720435,0.006576676149655848,0.10832263404643683,0.1136997600494373,-0.05407662224035723,-0.16918882195295387,-0.2768212244050903,-0.33208639549595764
392,103.984,0.0007072718901092136,0.049469759007543225,0.006132259902988014,0.09343229578378906,0.08914047761448415,-0.07289944823633358,-0.2646374449946888,-0.43870730353944476,-0.21631191428074958
393,103.991,0.0012934077044760976,0.049981254524082225,0.00558457496866656,0.07403507974948667,0.057001098539412175,-0.08358196156968423,-0.3004955743424381,-0.4976654369711567,-0.0949204297581866
394,103.997,0.0016859188318407554,0.05023798228567647,0.005076056079929722,0.05680196270539427,0.028574821991998196,-0.08592433467592196,-0.2852673873244494,-0.4685590653618825,0.015301901982386474
395,104.004,0.0020213025462431536,0.050336527736411514,0.004488844166356167,0.039021955695222495,-0.0004189789248631483,-0.08185049777354522,-0.2327486531075627,-0.3761680452311662,0.10338831339985291
396,104.011,0.002247362877378652,0.05025846744665899,0.003948040510516148,0.025566710343576306,-0.021883961004459423,-0.07266483246666346,-0.1592665421692251,-0.24920881870808523,0.16423373918381962
397,104.018,0.002397494383822521,0.0500614766540793,0.003482804697204908,0.017328005783212808,-0.03439912258969674,-0.060259685622167415,-0.08076604680597066,-0.11541727204894117,0.19718709972176782
398,104.024,0.0024934487526173704,0.04984510958733609,0.0031567074717569446,0.014656783815069123,-0.03772323299137129,-0.04843938952714956,-0.010030231506656787,0.002428963038408172,0.2045911526211971
399,104.031,0.002600249446131965,0.049592076663053306,0.002865147212419266,0.01585770004622175,-0.03457188823222898,-0.034863541712127646,0.04501862440190851,0.08938467534953881,0.19093776514705812
400,104.038,0.00272642880660262,0.049377539062955694,0.002663522092630028,0.02019354580258433,-0.02672456893859762,-0.022743635370587562,0.08130515316209967,0.13924500214020197,0.1621726633174759
401,104.045,0.002889462256490599,0.049225588107499635,0.0025387653284789083,0.02638743987966205,-0.016689989763102916,-0.012901154386849788,0.0991523957481747,0.1531099428785218,0.124585549112158
402,104.051,0.003065414917420283,0.049151090378285016,0.002479743849503671,0.03226344709689709,-0.00814258664176996,-0.006772671938228562,0.10057626515148073,0.1374209085108461,0.08372488134815868
403,104.058,0.003314042605671529,0.049122971613876965,0.00244767338403565,0.03877303526055108,0.00010865395376008329,-0.002390318195485069,0.0890789517137321,0.10297691470165758,0.04395389472260849
404,104.065,0.0036045798680900097,0.049143661532821306,0.0024372542260312235,0.044237611144838256,0.0058027514589157805,-0.000586584091497864,0.07013009475092975,0.06291918656383029,0.008597445555659772
405,104.072,0.003928677170314084,0.049195264487840014,0.0024318318705711917,0.048361618061973956,0.008940949974990401,-0.000962660325653008,0.05002181141573859,0.028511439332806258,-0.019554332220900056
406,104.078,0.0042262847006264625,0.04925196829082746,0.0024209797650074616,0.05084089204214851,0.009960317687489778,-0.0026547081955902553,0.03425005105086873,0.006137420114587069,-0.037959289316090425
407,104.085,0.004589539153871468,0.049322178164775236,0.0023924577758126504,0.052946094599417966,0.010099646297616071,-0.005494431574366566,0.027084496927790767,-0.00207811603808281,-0.04477533839003744
408,104.092,0.004967136034469957,0.04939304319932905,0.0023438360677361216,0.05493872842864458,0.010147506432030658,-0.00839748501891749,0.030970389420472474,0.003472509038592056,-0.03980439488275924
409,104.099,0.005360832600850066,0.04946688449879192,0.002277228525052048,0.057546004822734746,0.01095000770020308,-0.010633241462232802,0.04499195374428406,0.019908163935413187,-0.025333807789151144
410,104.105,0.005715722506062902,0.049537954224069154,0.0022106349325968044,0.060750630248206025,0.012739900725541545,-0.011564622689514133,0.06393499635152351,0.040931267312376056,-0.006324343474916109
411,104.112,0.0061581795768914935,0.04963892882508704,0.002130172931481086,0.06566567570298633,0.016109985279606852,-0.011424520486435663,0.07926361901332046,0.057255300084521184,0.010406185987865564
412,104.119,0.006637169296977011,0.049765656695554175,0.0020536043254596684,0.07118853003563513,0.020097977710978376,-0.010452224091096519,0.08164335541277543,0.058933858186904636,0.017921425387752002
413,104.126,0.0071529393534091375,0.04991800450586996,0.001983938329174929,0.0761743432305814,0.023429968093499738,-0.009452346275957663,0.06361706029472089,0.03814284508569913,0.011209763729199691
414,104.132,0.007617483561758806,0.05006115088245163,0.001927222095765666,0.07867372621930209,0.02428549076705669,-0.009453064860462605,0.02133831823993316,-0.009063167059158718,-0.01123418880486915
415,104.139,0.008165385012071187,0.05022017435033023,0.0018540837422869128,0.07786954529872717,0.021149785769744932,-0.011443607562065765,-0.044767927465043045,-0.08229481079452465,-0.04675977306519654
416,104.146,0.008689448488170402,0.050337027953904025,0.0017576567464627824,0.07186287644379885,0.012236958108457782,-0.016106962673380347,-0.13023486160225975,-0.17737818548222287,-0.08910590733130551
417,104.153,0.009149499287898464,0.05036682191331059,0.0016185646734802129,0.05958020919269616,-0.0037243982780153836,-0.02363362960732541,-0.2276175650992691,-0.2876519256147445,-0.13018164416078498
418,104.159,0.009457933322624545,0.050283296318854774,0.0014509224455065725,0.043231135715993935,-0.024117466540588925,-0.03224711305055263,-0.3280962779460662,-0.40551948570895835,-0.16259531308172903
419,104.166,0.009670290757476796,0.05000284757265303,0.0011838045821944516,0.017442417099014975,-0.056010746660013926,-0.044072276467296556,-0.4232515645023273,-0.5236832235158156,-0.18192785426636002
420,104.173,0.009680733790757302,0.04947152268584826,0.0008309375326374336,-0.014458693304587083,-0.09579636385552695,-0.05674688054892225,-0.5061792780842052,-0.6354607449861585,-0.18734355359366026
421,104.18,0.009450363615656288,0.04863661638090981,0.00038976368679072396,-0.05136135672422726,-0.14274829469814332,-0.06930278969290474,-0.5689705559457295,-0.7324719724652737,-0.17846970705741438
422,104.186,0.009039443631528683,0.0476451270381405,-5.497562780530635e-05,-0.08561197131830278,-0.1877481528916134,-0.0789436485057664,-0.595226344255468,-0.7970975269209715,-0.1492282942261125
423,104.193,0.008301745302171617,0.04613962398833882,-0.0006360710205996895,-0.12515897992685074,-0.2423955756237181,-0.08708360657856146,-0.5569658229721637,-0.7950414147207168,-0.08792734062533346
424,104.2,0.0073071662376560775,0.044264961143931525,-0.0012551280391670662,-0.15900646707738586,-0.2932223799208399,-0.08978982729770553,-0.42917221748321044,-0.6857847680105484,0.009082279390875577
425,104.207,0.006116772764482569,0.042075507585463454,-0.0018676934008700508,-0.1811059538297782,-0.33233577964228883,-0.085228847474806,-0.21469078080064824,-0.45377431315231825,0.12380072268003794
426,104.213,0.005015370022721812,0.0400300289161138,-0.0023485279161764346,-0.1860282934237934,-0.3494904434742371,-0.07504932429398244,0.04737779780730517,-0.12932198143511725,0.22220677158229665
427,104.22,0.0037549038625468737,0.037595033893792644,-0.002814304536085101,-0.17410489519736028,-0.34622242004559495,-0.058029709965541465,0.3000074160577646,0.22453502356585245,0.2736554189699981
428,104.227,0.0026315833147116507,0.03526357895117532,-0.0031558707595953123,-0.14684383275533125,-0.3199075635588789,-0.03956063960873492,0.4942367940885445,0.5421417136247934,0.2644363090714942
429,104.234,0.0017355174464706677,0.033182460848690705,-0.003377091668922607,-0.10917498674242926,-0.2746976085803652,-0.023645334484861048,0.6032355774421891,0.7750389743653008,0.1992521100521125
430,104.24,0.0011886628948603298,0.031681777481661316,-0.003492829562051977,-0.07310986379434317,-0.22553018042941309,-0.014933963224927483,0.622637442331288,0.8961884801664114,0.09685210698201688
431,104.247,0.000819455965303752,0.030318589385015863,-0.003587633306979016,-0.03237783036460366,-0.1639521328975806,-0.012152821039921463,0.5640801255497023,0.897872475024738,-0.015824227649289088
432,104.254,0.0007143824098366958,0.029373683739570094,-0.00368795508180245,0.002356814516894755,-0.10602090865816031,-0.016510543195324964,0.4479050326694245,0.7899391991053935,-0.11113691330827938
433,104.261,0.0008204846210835815,0.028798267401694028,-0.0038371422745631743,0.027958102982255335,-0.05838375930664648,-0.026114369022080947,0.29798207936735693,0.597957187576137,-0.16866814103949537
434,104.267,0.0010267597307718384,0.028532397590010618,-0.004024571142646657,0.04080026691382768,-0.030239511254486703,-0.03636192033907756,0.13853001299078324,0.35868101378582,-0.17965166633598356
435,104.274,0.0013279680634814594,0.02837734409739877,-0.004318253228334331,0.04525925671743111,-0.014061486634581222,-0.04754724700019796,-0.008618464526942293,0.11266167189594899,-0.14623001777231937
436,104.281,0.0016285201258870853,0.028279970485918897,-0.004678024841011532,0.04061276111268638,-0.013759545216790656,-0.05524464233607176,-0.12675601837835773,-0.10386468449336721,-0.07803166284726883
437,104.288,0.001872815544803317,0.028139307125373693,-0.005072767857344474,0.02918593000632877,-0.026429986367605886,-0.05753907661634567,-0.20616183711103375,-0.2652854374233758,0.01118389612696223
438,104.294,0.002008170021650484,0.027925588664006927,-0.005407629810564195,0.015932228942725266,-0.04480950075464646,-0.054081574456890553,-0.24433862477292612,-0.3594441894808127,0.10633847081978594
439,104.301,0.002060919236366978,0.02752226199175407,-0.005750176534762564,-0.000861024738023429,-0.07042669131751615,-0.0437889181711449,-0.24492860513845896,-0.38690622617303716,0.19353548601382914
440,104.308,0.0019995196638341083,0.026939799399048885,-0.0060019898433002344,-0.016681710271355378,-0.09599119231241822,-0.02815774141099531,-0.21600309596875308,-0.35790909214620237,0.2618749245643695
441,104.315,0.0018366268733600478,0.02619021361303523,-0.006131075339782462,-0.029859087007008837,-0.11817617512033568,-0.008723829012546775,-0.167916466942152,-0.288444812250935,0.3043272341303967
442,104.321,0.0016328536110416098,0.025438358284913826,-0.006128497792670493,-0.03806533376580122,-0.13244226758678965,0.009583011383203305,-0.11101829531244302,-0.1964673805452262,0.31793216453443407
443,104.328,0.0013465683143946369,0.024475784083072504,-0.005986757685317732,-0.043730465276132544,-0.14257893293910595,0.030914162146127966,-0.05403388896563869,-0.09886181960566437,0.3035455575917156
444,104.335,0.0010335449920946661,0.023464718696529697,-0.005702039982691028,-0.04570476966683388,-0.14629689178779015,0.05043375289018017,-0.003486973793055959,-0.00945997802842152,0.2651528181920022
445,104.342,0.0007175519964593335,0.022446951263362498,-0.005292056891593905,-0.04457894337176805,-0.14449380340263,0.06670427313748557,0.03628764025233241,0.06199250545066958,0.20888470437231518
446,104.348,0.0004588452504112069,0.02159518417772375,-0.004860863129350222,-0.0416566386442709,-0.13942855847694294,0.07702698094373664,0.06304307674402666,0.11017790699689961,0.14198971268993918
447,104.355,0.00018400939637471339,0.02064852163680319,-0.0042959758302314665,-0.03686789108038541,-0.13104645321445246,0.08436939023293535,0.07647588127737624,0.13403262543290156,0.0719295385817842
448,104.362,-5.550112531396966e-05,0.019763645831086207,-0.0036960746963424014,-0.03156368654504263,-0.12177520556216126,0.08703093373559447,0.07806078619825838,0.13608284729816503,0.005613863167105238
449,104.369,-0.0002585027009154044,0.01894213623313779,-0.0030923497500780187,-0.02643676362675442,-0.11294182242293349,0.08546190805410588,0.07131082587210918,0.12127555277354887,-0.05132703248114849
450,104.375,-0.00040542862469377067,0.01828358461697228,-0.00259248706838758,-0.022538544299365807,-0.10657538296556096,0.08115898584270076,0.061191755790621964,0.09512316501394856,-0.09493161892393392
451,104.382,-0.000549698722942647,0.017556490466972694,-0.0020505190160149595,-0.018681483771712255,-0.10116580274845856,0.07368902912079438,0.05118273433745575,0.06248359649405249,-0.12270369477795029
452,104.389,-0.000669245466961935,0.016859376591213664,-0.0015655340019039882,-0.015474728805272116,-0.09800959032581173,0.06487811776823686,0.04224526652913864,0.02947186004822016,-0.1339999954313642
453,104.396,-0.0007682760408670327,0.016177428385118094,-0.0011432295112388266,-0.01281972088187842,-0.09683275427278275,0.055780308136008774,0.03510772275850361,0.004814962902915547,-0.131062404127582
454,104.402,-0.0008394646404953386,0.01559640852680108,-0.0008305374418031105,-0.010909812327555987,-0.09684053183288133,0.04845038167589268,0.02981110117975464,-0.005079326373913242,-0.11808575758295162
455,104.409,-0.0009093379856931988,0.01491771771875457,-0.0005173916294818521,-0.00905400058610408,-0.09707112760883974,0.04101985041583147,0.024257507991444223,-0.0016390236657679294,-0.09840090518614325
456,104.416,-0.0009677950770736499,0.014238956929559609,-0.00025087834729785254,-0.007648025522618219,-0.09686052644711865,0.03512680163684001,0.016705222502301234,0.007774835639460981,-0.07329159149429326
457,104.423,-0.0010183427748576394,0.01356375461845068,-1.8999680266169877e-05,-0.006794173844225589,-0.09605441958386567,0.03112424608645055,0.008171531781548981,0.015710885442003535,-0.04332185959353565
458,104.429,-0.0010582534766525973,0.01299041736382695,0.00016304785029921072,-0.006509393420759876,-0.09505799862403723,0.029558264102007355,0.0015083087166742346,0.01815800148093147,-0.009906714365398224
459,104.436,-0.0011037198933685436,0.012329009349452597,0.000371655873218936,-0.006481011355215513,-0.09391571976849981,0.03004402816072871,-0.0006814043625779969,0.015122006197141206,0.02405932826139175
460,104.443,-0.0011488757953517538,0.011674522778930753,0.000591370997156167,-0.006420674925718661,-0.09308044323798727,0.03273172153570558,0.0024392910880414445,0.009213565816707996,0.054245943452347976
461,104.45,-0.0011923990111098737,0.01102444570682012,0.000836109024178937,-0.006014529576592405,-0.09265586307920354,0.03719342904217874,0.00939365169279649,0.0031564705152979846,0.07574478460230212
462,104.456,-0.0012261483321466442,0.010468642918902102,0.0010734312493150234,-0.0052352441023306865,-0.09261173289346243,0.04191397933651375,0.017094682728631457,-0.001656461652566687,0.08470927104139661
463,104.463,-0.001258041839375666,0.009819581539478208,0.0013865781226595052,-0.003877186534544667,-0.09283437551360849,0.04755655590488451,0.022471983557957046,-0.004830175189236638,0.07968578066559164
464,104.47,-0.0012796275184884225,0.009168395186772755,0.001736464206986585,-0.002290150354809938,-0.09321886811638819,0.05241089675992398,0.023765917100811548,-0.006371920262885225,0.06174422142587557
465,104.477,-0.0012903069515436136,0.00851432131360258,0.0021148100966003618,-0.0007611162323853478,-0.09365938136067085,0.055687928843934975,0.020782108180094707,-0.006462322515007002,0.03373128561733784
466,104.483,-0.0012917504039746785,0.007951334153951677,0.0024518617911163435,0.0002799654220304274,-0.09400300518962311,0.05666263599472131,0.01460481988795897,-0.005217637136598206,-0.0006004627985943007
467,104.49,-0.0012871786670452872,0.007292363729059724,0.0028439530843546983,0.0010262451292259217,-0.09427425906546841,0.05536344778781321,0.007137852021888682,-0.0026852764357710355,-0.037251059438424536
468,104.497,-0.0012790865442592729,0.006632228477921839,0.0032183215530903375,0.0012857899524908072,-0.09433581268807818,0.05159897185086444,0.00042392124318290953,0.000891927094552125,-0.07242600188355242
469,104.504,-0.0012705173024211802,0.005972591769194671,0.003558455913493892,0.0011625648583910774,-0.09413181837669242,0.04558227397865316,-0.0040140534231582125,0.005051395953310411,-0.10286898008442664
470,104.51,-0.0012643766572614477,0.005409074862611171,0.003811738220621033,0.000884316861519651,-0.09370715048446711,0.038845161730390626,-0.005443746364788947,0.009383295207799368,-0.12612910618908083
471,104.517,-0.001259297633502329,0.00475590219178888,0.00405159424542198,0.0005668327839447434,-0.09291361260786132,0.029685131069970214,-0.0038060725285225232,0.01373623160328824,-0.1407460874057163
472,104.524,-0.0012557275735359382,0.004109337675790017,0.004224905514974218,0.00045318434930903377,-0.09181910624882463,0.01983237451634816,0.0004949539177364485,0.018151936382893728,-0.14631150117273417
473,104.531,-0.0012516907235974799,0.003471501000224023,0.004328927730725583,0.0007002013473925146,-0.09041994391275769,0.009888258555449222,0.006701824305883075,0.02261230700780655,-0.14340782080023703
474,104.537,-0.0012456832414991807,0.0029333448314178266,0.004363822484250806,0.001302292685373766,-0.08896544568930108,0.0017433259529578953,0.013763585661884674,0.026826873665734878,-0.1334428401455164
475,104.544,-0.001232452404045836,0.0023174413991443404,0.004345773515729049,0.0024779465870154085,-0.08700696353192651,-0.006900174102038128,0.020488795605438703,0.030233012297278275,-0.11838336393924515
476,104.551,-0.001209541203301554,0.0017158951003772424,0.004271185733910787,0.004068110768489069,-0.08486340754426437,-0.014410620703164522,0.025840238598684437,0.032218953246819955,-0.10043161222841447
477,104.558,-0.0011744492955526235,0.0011296166076918631,0.00414842865327452,0.00595814858834104,-0.08264473322286711,-0.02066283090717224,0.029225538773976555,0.03242156609160777,-0.08172496239924708
478,104.564,-0.001133421201555343,0.000639337919769346,0.0040115809613702575,0.007717882744117659,-0.08078149608501946,-0.024953066394355027,0.030588776198711035,0.030910871178067963,-0.06410246039354445
479,104.571,-0.0010720840657740813,8.096608151184146e-05,0.003823329186574038,0.009807013193373149,-0.0787533148455821,-0.028833154975954928,0.03027751494786509,0.028179680042231033,-0.04894294630488775
480,104.578,-0.0009963351070343604,-0.0004639202286050157,0.0036111638788528474,0.011835546446531621,-0.0769284880448373,-0.03178550437291347,0.028823292103822822,0.02498619066047702,-0.037073012165171795
481,104.585,-0.0009068068514996805,-0.0009967573740660312,0.003380759641006296,0.013743955134839152,-0.07531069637279598,-0.03404427786904499,0.026777715909254082,0.022147763545333696,-0.028735786562061733
482,104.591,-0.0008198066507317402,-0.0014448714780090168,0.0031718723572860584,0.01525611178780653,-0.07406067160819355,-0.03558481670436485,0.02462130594385305,0.020341253757632356,-0.023627961007862804
483,104.598,-0.000707331617888454,-0.0019584581844481782,0.002917414971858301,0.01687961188168084,-0.07267838737431913,-0.03711729341779958,0.0226789616988223,0.019931250363068084,-0.021020363297834688
484,104.605,-0.000583921707069505,-0.0024623045516340876,0.0026526725052965815,0.018380362637993697,-0.0712777175358378,-0.0385234113140662,0.02104503481117815,0.02087691373200532,-0.019946528593035633
485,104.612,-0.00045037608469585574,-0.0029560070289475137,0.0023782804529832785,0.01977552946881342,-0.06978013312532672,-0.03987431791840925,0.01960280053732971,0.02275483208808455,-0.01941179616894683
486,104.618,-0.00032839191029783015,-0.00337048427545365,0.0021356838664063657,0.020885861997193566,-0.06837894904338017,-0.040991210940558624,0.018138002162202644,0.024872172102829763,-0.01855200125930622
487,104.625,-0.00017803785276891067,-0.003842973399791275,0.0018445091450340696,0.022072440153895586,-0.06661794362441625,-0.042201566594323635,0.016432654533615944,0.026434278664547697,-0.016711406843916653
488,104.632,-1.9837949526988564e-05,-0.004302909906077095,0.001545471359647036,0.023127532200907002,-0.06479248674286701,-0.04323780065905349,0.01430718736697958,0.026749949284211236,-0.013479012477349
489,104.639,0.0001451779478384717,-0.004750189741596975,0.0012401426394104073,0.02401986704642938,-0.06300175197726689,-0.043998976551526604,0.011690764329749652,0.025422658533733808,-0.008697656050759462
490,104.645,0.00029109799040508513,-0.005123974995264243,0.0009751656713463982,0.024620147142439913,-0.06159333257848462,-0.0443266794698064,0.008713080544579076,0.022450277986627798,-0.0024411432429099177
491,104.652,0.00046517058110979385,-0.005550241623996693,0.0006651863917021428,0.025114878773155616,-0.06019713277355681,-0.04423882899991755,0.005700801310091004,0.018227652803100524,0.005000644627576282
492,104.659,0.0006420275601936913,-0.005967811183244419,0.00035769188331368445,0.025415686679350406,-0.05910845558285094,-0.04361674482529349,0.0030631615167247155,0.013490683827220795,0.0131236216210149
493,104.666,0.0008204485902973018,-0.006378844233762873,5.650244931472691e-05,0.025561750493176803,-0.058329558851147406,-0.04243737917452187,0.0011923710286570457,0.009202276902912138,0.021236900525346984
494,104.672,0.0009739637086290256,-0.006727443685753066,-0.00019372863871807973,0.02560995561739585,-0.05787025847891276,-0.040972983503077175,0.0004461471951688181,0.00640959097023616,0.028538699754213068
495,104.679,0.001153424811759245,-0.00713103067481784,-0.00047299530330241187,0.0256646452769159,-0.05744030982522593,-0.038817492092389286,0.0011472223046824985,0.006116855112968899,0.03426100134325948
496,104.686,0.001333629672295836,-0.00753128627558521,-0.0007360610490061517,0.025822457733501853,-0.0569184332510838,-0.03634414953719696,0.003450603997901939,0.009087887853480598,0.037799213050342416
497,104.693,0.0015156445402191392,-0.0079267621848656,-0.0009812775782449576,0.026181790244653187,-0.0560746836863194,-0.033717715959696935,0.007018458501285706,0.015494543886075497,0.038721269843655245
498,104.699,0.0016743085594100396,-0.00825967080920601,-0.0011769222324726153,0.02670621615231162,-0.05489485776047949,-0.03149716878285319,0.010807061516879254,0.024608376949611366,0.036756328753339784
499,104.706,0.001864150140253504,-0.008636791995066229,-0.001389159916348136,0.027534235517210917,-0.05285405248522013,-0.02914216946725226,0.013317074798746432,0.03484997238499922,0.03185598506575958
500,104.713,0.002060068674063698,-0.008997269855675224,-0.001586412198342769,0.02844248842863242,-0.050139621974628075,-0.027215625388431287,0.013144645751600193,0.04423427906232406,0.024273392996896338
501,104.72,0.00226187807113287,-0.009336810584858454,-0.0017722457790219105,0.029217339305375598,-0.04687201493479677,-0.025879683376999776,0.009430440009960316,0.05096663168494502,0.014648942107506023
502,104.726,0.00243819655750581,-0.009608786405642666,-0.0019258727438168153,0.02955548948560208,-0.04378659199327023,-0.02532930488796654,0.0020634673633176436,0.053908561560673064,0.004058720177209443
503,104.733,0.0026443351170694403,-0.009902477836525108,-0.0021034228716539792,0.029341241818250208,-0.040125245401653256,-0.025399303065472563,-0.008305519363067646,0.05276385217648808,-0.006098099505259334
504,104.74,0.0028462705699578467,-0.010171251328999903,-0.0022836753802509277,0.028354601864227523,-0.036667181019817904,-0.026101413676580438,-0.020439987993790983,0.0479859854144733,-0.014357716879068772
505,104.747,0.0030383684651819898,-0.010417296458705438,-0.0024704510192589562,0.026530511056917006,-0.03363142746742741,-0.02726305461138952,-0.03270443972498622,0.04045993218483284,-0.019486400117582972
506,104.753,0.0031908969777648777,-0.010612803394429817,-0.002637587043343747,0.024312326470710383,-0.031537551107363365,-0.02844895341687189,-0.042692853139431934,0.03071205689278157,-0.020822941179133244
507,104.76,0.0033502603518416607,-0.010827760040161045,-0.002841473008760103,0.021220066122623612,-0.0298786333872292,-0.02980417955918827,-0.04739937576601378,0.017620094399103635,-0.018661232237168368
508,104.767,0.0034876326909556274,-0.01103493674551189,-0.0030540707312290065,0.018029173624275606,-0.029314710998804363,-0.03093802686057831,-0.04556647607511159,-0.0011903571894237343,-0.01437312422769505
509,104.774,0.0036037329667517196,-0.011243335158471876,-0.0032735580903155465,0.015142333746012723,-0.030227692704005975,-0.03177264716410262,-0.03854087901442519,-0.025409135580452113,-0.00994332877755326
510,104.78,0.0036888069857517374,-0.011431248371004307,-0.0034657065986740247,0.013215672587325492,-0.03241004480680182,-0.03227685562205435,-0.026947374999846008,-0.04877019180779165,-0.007194989198912104
511,104.787,0.0037769494804267777,-0.011671393640081794,-0.00369339240935487,0.011967897319810912,-0.03620288921528832,-0.03277623314385499,-0.009406244155484801,-0.06173337781031107,-0.007354249526130338
512,104.794,0.0038612477804529674,-0.011939145269438386,-0.003925018366711049,0.012117331259132138,-0.04029757631526739,-0.033402611815140475,0.013759964461062334,-0.057564302844709855,-0.010895135804561728
513,104.801,0.003952309004367132,-0.012232450034207516,-0.004162215541927706,0.01390016128775335,-0.04350378504728109,-0.03436800967528456,0.0381823408294421,-0.03584778361881695,-0.017231488480078803
514,104.807,0.0040441661523868775,-0.012496808497753616,-0.004372113712766087,0.01671888805216068,-0.04461570280141551,-0.03559804727083976,0.057627705224586656,-0.0019469017608107955,-0.02457815414525376
515,104.814,0.004176194678091279,-0.012805051611302562,-0.004627902500475955,0.021003547863432226,-0.04345375821268499,-0.03748446350350437,0.06720478267982169,0.035799865638297616,-0.030382109194042835
516,104.821,0.004339088446606959,-0.013096609579804902,-0.004897803383865192,0.025537528855300303,-0.03984851850220976,-0.03963007460765135,0.06489161522698753,0.06923788820286865,-0.03212973165288799
517,104.828,0.004531843694235819,-0.013356127704506615,-0.005182469234038958,0.02953539903862027,-0.03429951712679789,-0.04170302544193784,0.051585328867569606,0.09243087374971014,-0.028265170473584768
518,104.834,0.004716280564694098,-0.013544744453125002,-0.0054368442300432055,0.03194355778080378,-0.028572732412661957,-0.04308863989280818,0.030269288226729307,0.10222563362490197,-0.01883261354271343
519,104.841,0.0049440847743053495,-0.013720686759967769,-0.00574137605741432,0.03314335925106812,-0.0216964981139089,-0.043920453641910405,0.00468662638998244,0.09811172633745885,-0.0054020712041040675
520,104.848,0.005174025929806197,-0.013850943092072989,-0.006048311086648235,0.032554113749127166,-0.01551959677327056,-0.043775268996288384,-0.021854146154356085,0.08185074346281306,0.009631989404564768
521,104.855,0.005393634394385329,-0.013942917226985253,-0.006350711539334518,0.03019116184486567,-0.010758727487357466,-0.04262486034258794,-0.04698986433880939,0.05685598792892308,0.02388487790193868
522,104.861,0.005564533923983365,-0.014000028118811948,-0.006601213421128722,0.02677534802114402,-0.008278236454873744,-0.04087576692214355,-0.06911549354662276,0.02745724280340746,0.0355677527260645
523,104.868,0.005733206950581636,-0.014054891317051253,-0.006877818752178407,0.02141694529271122,-0.007396963042091108,-0.03815432766358486,-0.08700022467781394,-0.0017815631724923996,0.043720696833666244
524,104.875,0.005860707739523992,-0.01411008899199032,-0.007133863323945146,0.015011851547935788,-0.008373801226202186,-0.03500126426971669,-0.09961057352751042,-0.02667837207874394,0.04814301354554192
525,104.882,0.0059410665844903095,-0.01417719799225511,-0.007367184736674246,0.007947818442424256,-0.010800198849438562,-0.0316619965099784,-0.10619825752099778,-0.04401411350821251,0.04914571428523484
526,104.888,0.00596997387747384,-0.014250479694213138,-0.007548643785342453,0.001687945885419026,-0.013627035136570034,-0.02882435304608844,-0.10657819373078863,-0.05207157960586027,0.047307320607409484
527,104.895,0.00595680747239773,-0.014358249030775911,-0.007739523000929634,-0.005449775907169785,-0.017164203881405715,-0.02571256569317773,-0.10137753871601901,-0.05098294374135338,0.043353822681358976
528,104.902,0.005895427850754187,-0.014489646018121465,-0.007909720157632394,-0.012087258848115668,-0.02037779250301097,-0.022915193364718714,-0.09200386037661246,-0.04264415395264452,0.038146917806167864
529,104.909,0.005790116745608023,-0.014641032280551036,-0.008061616772022745,-0.018001628336480942,-0.022875425333978565,-0.02048383931820773,-0.08030980981835144,-0.030123751527406838,0.032689971928545586
530,104.915,0.0056690081931788285,-0.014782425251232141,-0.008179157066264094,-0.022367889139915737,-0.024255564893054977,-0.018696258762240788,-0.06810175456005947,-0.016787937958005598,0.02807085723557184
531,104.922,0.005497443874768512,-0.01495488745683172,-0.008303618549471193,-0.026650487548810615,-0.02501935099260361,-0.01686416501126292,-0.05667067490363572,-0.0054647782979354645,0.02530673423786064
532,104.929,0.005298492746843732,-0.01513042276372748,-0.008415610167777678,-0.030192691858228902,-0.025133593834720712,-0.015133440219138459,-0.046530558353265125,0.0021363417744096674,0.025117498068736716
533,104.936,0.005077057293855195,-0.015305422430138226,-0.008515196447510639,-0.033074580424165057,-0.024866310854028163,-0.013319782561687126,-0.03743254149469802,0.005650880764592117,0.027722962448216752
534,104.942,0.004872786751551453,-0.015453596382556532,-0.008589778387257187,-0.03501560034390771,-0.0245250066188555,-0.011540864020553779,-0.028543774567945632,0.0059502346408881164,0.03274344015061478
535,104.949,0.004622001043329199,-0.015623978475241378,-0.008661921862428881,-0.03663745914811356,-0.024155591291065967,-0.009071557457058442,-0.018708674512297813,0.004812588189662605,0.03919918663816259
536,104.956,0.0043624698919958824,-0.015791952559569732,-0.008715234250638816,-0.03751429837563838,-0.023837004231286436,-0.00616055346005475,-0.0068378162443153865,0.004469365813249513,0.04561218398429728
537,104.963,0.004099960813826689,-0.015957427712151098,-0.008746841387467926,-0.037488295387087006,-0.02344161079202359,-0.0028700570625599577,0.007595406787508324,0.007050322773092126,0.05025560245214043
538,104.969,0.0038778297485518266,-0.01609622495098122,-0.00875508134515614,-0.03655539303786438,-0.0228241354846818,0.00012340449982245656,0.02411444823340744,0.013937996627238786,0.05149377381744196
539,104.976,0.0036297749503412732,-0.01625129266695778,-0.008742257462432228,-0.03431740645081451,-0.02148092622287548,0.003540561992721056,0.041088729116314095,0.02519606799233378,0.048064251834135804
540,104.983,0.0034012248770550987,-0.016393898330011637,-0.00870697921954362,-0.030982614488045804,-0.0192635489353395,0.006538935975445433,0.056069597493437644,0.03940666259017607,0.03929262138738033
541,104.99,0.0031990768918629146,-0.01651750982879801,-0.008653442768929839,-0.026773952709797048,-0.01605402214652806,0.008757192771368971,0.06654870679874578,0.054102094625318675,0.02533573345132478
542,104.996,0.0030505510074084665,-0.016603183501000717,-0.008598012571847792,-0.022734675441683828,-0.012503868587706975,0.009719539589312978,0.07074851050152384,0.06656954345771522,0.0073749549741814
543,105.003,0.0029080831592421842,-0.016673753531119568,-0.008530584977163627,-0.017970424034367796,-0.007658997160522009,0.009545487463291962,0.06805675814817896,0.0745845692305846,-0.01244591996866083
544,105.01,0.0027975582226069814,-0.01670917632956536,-0.008469035043997496,-0.01360812928995335,-0.0024618023954115116,0.008040207727018652,0.05903760404223933,0.07683439545465547,-0.03141002723545167
545,105.017,0.0027148200802587764,-0.016708400254809425,-0.0084221525207659,-0.010031339952422025,0.002683538039965027,0.005354798910597843,0.0451712553261056,0.0730738063525237,-0.04682868443831321
546,105.023,0.0026611289419262163,-0.01668019562941163,-0.008399154998579449,-0.007865706158430578,0.006718003759300106,0.0023110418182186814,0.02843980771075767,0.0640598638044591,-0.05663026407720251
547,105.03,0.002610791185415106,-0.016619314538689648,-0.008396956998997396,-0.006516509987590723,0.010676593589825215,-0.0016830419376324952,0.010868684000446785,0.05127265707305858,-0.059736363403663555
548,105.037,0.0025657836619458743,-0.016534033160423456,-0.008422661824889537,-0.006342782432180591,0.013689514486211906,-0.005661194031545511,-0.0058071752892294584,0.03650803682589304,-0.05616609910640205
549,105.044,0.002518247261683581,-0.016431241656371283,-0.008474672451322014,-0.007239046214206785,0.015679486671590148,-0.009198984949181603,-0.020305244986148514,0.021469303197192192,-0.04690655108915029
550,105.05,0.002470206398462148,-0.016334610332724236,-0.008536973355910391,-0.008774574859603685,0.016530954544091113,-0.011567983246943385,-0.031888203520624714,0.0074725499501086855,-0.033616981335673396
551,105.057,0.002400103431952429,-0.016218554830916238,-0.008624180355077848,-0.011254844143158796,0.016627760258170136,-0.013348302229455189,-0.04037381936481782,-0.004652139774245426,-0.018252165256851104
552,105.064,0.0023109489423061348,-0.016104458609534085,-0.008720131935440937,-0.014217867184387372,0.015971160136773258,-0.014066435017178035,-0.04595311305152279,-0.01447773991811331,-0.002670453220662831
553,105.071,0.0022000274377315973,-0.015997022807864334,-0.008817513169493045,-0.01747399126545787,0.01472478319741962,-0.013756774711975759,-0.04891324457513635,-0.021835139297309646,0.011692328470097938
554,105.077,0.0020864997229835276,-0.01591295785063939,-0.008896906597937801,-0.020368580317230614,0.013296869210893321,-0.012707701436275346,-0.04947540162489583,-0.026700428795982334,0.02396623912435321
555,105.084,0.0019322369110831706,-0.015826582526895942,-0.008978920804403698,-0.023706508797125592,0.011381794715788289,-0.010724928982535707,-0.047774306623882726,-0.029094785824524138,0.03380133852487236
556,105.091,0.0017552998471746296,-0.015753888176708263,-0.009044975496569886,-0.026846938033952654,0.009388019623575574,-0.008147840207828817,-0.04372131076202212,-0.028993350934434222,0.04128149592814187
557,105.098,0.0015577044624660477,-0.015694847730376407,-0.009091424795182467,-0.02960888616845897,0.00748067932837166,-0.005123387967184831,-0.036747354728212826,-0.02657652971368431,0.04683516079071219
558,105.104,0.0013744768428627905,-0.015654330045176842,-0.009113531196838899,-0.03146698703262446,0.006025215738149179,-0.0022454125849583947,-0.026410497823046542,-0.022895464297944722,0.05098877780287233
559,105.111,0.0011494036579426843,-0.015617257622613467,-0.009116634648838126,-0.0328396372302171,0.00456690499423636,0.0013587120137511953,-0.013581321069284084,-0.019592053105676497,0.05401648753695945
560,105.118,0.0009179134383743168,-0.015589697233339543,-0.009093934163545616,-0.0333004255036892,0.0033074919411807705,0.005127140926974647,0.00015637040613475326,-0.017100630009709385,0.05577574275657779
561,105.125,0.0006865205820473745,-0.015570258916071339,-0.00904463720991691,-0.032811819161104205,0.0022463129925879366,0.008957702966931519,0.014079052716648496,-0.013816552240296643,0.055826720585109034
562,105.131,0.0004933498852800772,-0.015558675796099333,-0.008981224292433525,-0.03157841309465911,0.0016147269980806324,0.012179936194196219,0.02784508605466328,-0.007651397042665441,0.053698728209487075
563,105.138,0.0002804668666720984,-0.015548028224220975,-0.00888360636546889,-0.029245306507577097,0.0014274363957336525,0.015710900081393798,0.04012938861537742,0.002194732364051699,0.04917501816800913
564,105.145,8.644083810341077e-05,-0.015535985486740341,-0.00876261462357337,-0.026190701654978006,0.002013345741595041,0.018858169031657105,0.04886575688292107,0.014875589330546488,0.042519872551697806
565,105.152,-8.47293563763216e-05,-0.015516697181236818,-0.008621356462782002,-0.022715068196339148,0.0034975986879789917,0.021501305480133466,0.0523959513496521,0.02836774762907901,0.034487244294654225
566,105.158,-0.00021197592064156552,-0.015489658871132616,-0.008487009230481764,-0.019700453225407227,0.005515171346755084,0.023281105286610693,0.05007244070851949,0.04021063740475063,0.026009112989337134
567,105.165,-0.0003387842749016073,-0.015440405405546084,-0.008318782020585518,-0.016530505134578807,0.00855724739224398,0.024783811826568233,0.04228320107759086,0.04841948444366633,0.017771864786136377
568,105.172,-0.00044577496377066914,-0.015368430014205424,-0.008141963432039061,-0.014038263113764785,0.01200715013368574,0.025735784901057313,0.0303276445021885,0.05209256580347058,0.009963631738898969
569,105.179,-0.0005384674710746444,-0.015271954802131987,-0.007960341625596836,-0.012445310401637795,0.015557196172990834,0.026156159796684432,0.016082632842437022,0.05133713428495503,0.0022838853068030468
570,105.185,-0.0006115926274191497,-0.015169944161235264,-0.0078037153053361775,-0.011929741713196393,0.018446350792582167,0.026052613623533102,0.0014418255078111168,0.0468667926282866,-0.005803475691943984
571,105.192,-0.000696381234683618,-0.015030420639307547,-0.0076238073661400755,-0.012295574648112107,0.021417512615389545,0.025349654718277926,-0.012100276221392349,0.03969726114604838,-0.014677055529394923
572,105.199,-0.0007867368634279945,-0.014872011528615663,-0.007451032550443565,-0.013520319278834167,0.02384223329654493,0.024014578337832774,-0.023582351113009263,0.030946367154387748,-0.024220059633543334
573,105.206,-0.0008881180038096236,-0.01469879060737388,-0.007289886306537042,-0.01544572083018205,0.025649458486786052,0.022027205635426556,-0.03251373969844469,0.021706685045317357,-0.033681545105654694
574,105.212,-0.0009870743163855153,-0.014541831325554328,-0.0071643811289787696,-0.01753971669511394,0.026670302119729386,0.019807853550662655,-0.03866231141421215,0.012992341735601497,-0.041755431665679646
575,105.219,-0.0011195310684618915,-0.014352901558059752,-0.007036369553601973,-0.02030506961247188,0.02730963145022033,0.016766882271327225,-0.04190555156977115,0.005634357799678467,-0.04684250309839602
576,105.226,-0.00127178258252966,-0.014161045418680202,-0.0069303271078424,-0.023195362978288062,0.027506408372468913,0.013530959374243397,-0.042302420012606035,9.868842765390566e-05,-0.04743529810447626
577,105.233,-0.0014440596096076403,-0.013968921073259684,-0.0068464152239347395,-0.026026644758242536,0.027386261747640053,0.01044386459935671,-0.04018626383100882,-0.0035991301782961112,-0.04250643312264235
578,105.239,-0.001606953900370633,-0.013805434706888711,-0.0067903124961765865,-0.028271452162752998,0.027109193709348892,0.008257044653360154,-0.03611595301539566,-0.005818562179819763,-0.0318247586705617
579,105.246,-0.0018128905741343132,-0.013617230078389997,-0.006738279366530177,-0.030567597484090138,0.02666355729035441,0.00660956381706231,-0.030781664456717962,-0.007164943007114362,-0.01617418188216853
580,105.253,-0.0020335535336689797,-0.013432445670405465,-0.006693634185604993,-0.03247896238291237,0.0261319878480457,0.006146202161552457,-0.024905472007412086,-0.00832219923989826,0.0026742563794441613
581,105.26,-0.0022661922058537284,-0.01325170202409177,-0.006647606465246941,-0.03398922966982545,0.025509053955829822,0.007004575083595666,-0.019095786232426717,-0.009826823317402355,0.02233422320307224
582,105.266,-0.002473022165341931,-0.013100563715733583,-0.006600047314595106,-0.03495409015957285,0.024870382163564547,0.008848475133682025,-0.013700343256147047,-0.011881976060749233,0.040340936003054516
583,105.273,-0.002720396280208821,-0.012929616564153874,-0.006526700377362269,-0.0357242283739172,0.023971661144988006,0.01210779264715628,-0.008737440269619843,-0.014302035184614835,0.05461846147514486
584,105.28,-0.0029719914079488624,-0.012765525979899786,-0.006427723420785736,-0.036160093837471874,0.022911362927574917,0.01617133780326152,-0.003961390583623706,-0.01658948718358378,0.0637719064632974
585,105.287,-0.003225475136192915,-0.012609315164458486,-0.0062987907608367385,-0.036263828517919976,0.021720298627050424,0.020666565039282905,0.0009391067121682763,-0.0181118721862212,0.06719541049635086
586,105.293,-0.0034424343882596643,-0.012482207868895713,-0.006163118810316019,-0.036055922170993786,0.02064879989387256,0.024557418467621998,0.00612774237921967,-0.01830894882733662,0.06505680027691507
587,105.3,-0.0036927026015755532,-0.012341889259261224,-0.005976408929980346,-0.03544928163364003,0.019442231430319902,0.02878826162835461,0.011546577374782754,-0.01684412043992434,0.058207753025127894
588,105.307,-0.0039374209087637176,-0.012209458976713619,-0.005762132458116011,-0.03447023470578553,0.018394992154682738,0.0324335874756973,0.016977709070895824,-0.013666932938181822,0.047997900349734696
589,105.314,-0.0041740143051133905,-0.012083417175113147,-0.00552500733980512,-0.0331278785370672,0.01761695115978526,0.03531644632750365,0.02213150089581308,-0.009001096114946124,0.03599346853362914
590,105.32,-0.004368469243002711,-0.0119787998337148,-0.005307841078172639,-0.03169043409270365,0.01725549597299573,0.03707230754998734,0.026728012609937256,-0.0032849610261951505,0.023689203343230644
591,105.327,-0.0045834222148185624,-0.011858056497686046,-0.005044009922947533,-0.029724700711781633,0.01724260003519518,0.03830802251427473,0.030543135930538857,0.0029092411160019194,0.012313041905409126
592,105.334,-0.0047838154793392535,-0.011735931748695968,-0.00477404662186819,-0.027530517722660547,0.017650185390516153,0.03882434922262509,0.03338383459076248,0.008965655883794282,0.0027300071145341634
593,105.341,-0.0049683043475865435,-0.011609583093513821,-0.004502502126785655,-0.025180587490920205,0.018449430375858892,0.03875979222962984,0.03508079274283063,0.014320146107530558,-0.004610858897918455
594,105.347,-0.005113151968884218,-0.011495986135319028,-0.0042712046868861936,-0.023101952941636267,0.019416222355737214,0.03833935440352108,0.03557311894919664,0.01854163577443347,-0.009680050029824205
595,105.354,-0.005266390619432894,-0.011355275813617373,-0.004005527534105874,-0.020680518643668377,0.020786726701850007,0.03756840353365883,0.03497476140214392,0.021387664273764588,-0.012781410010387434
596,105.361,-0.00540292783564355,-0.011204452809651086,-0.003745816988053446,-0.01833011455934843,0.0223055601456298,0.03663460962412481,0.033503671507252586,0.02286316679578531,-0.014424441107646926
597,105.368,-0.005523445503934098,-0.011042770826136385,-0.003492937133908299,-0.01610350495228187,0.023889292287202355,0.03561677727458362,0.0313680403870667,0.023278471540726625,-0.01522984886155116
598,105.374,-0.00561474834027672,-0.010895331973086717,-0.0032819819127829475,-0.014330773828591069,0.025256992062685436,0.03470162976719759,0.028888048548867368,0.023210382977483904,-0.015876509490043683
599,105.381,-0.005708382297380727,-0.01071295120619349,-0.0030430283474196236,-0.012421785343963375,0.026851798478199185,0.033570817479417585,0.02672985168432222,0.02325390154992816,-0.01706942261518793
600,105.388,-0.005789058186817954,-0.010519349923739915,-0.002812426313021304,-0.010628468780942169,0.028462853651353832,0.032315478062912316,0.02551797615319981,0.02368378645197426,-0.019504576121948034
601,105.395,-0.005857351078693886,-0.010314318771156709,-0.002591422884147192,-0.008883786040778344,0.03011747565821055,0.030828358758345626,0.025312917465375947,0.024523210312142652,-0.023822271463798
