,Time,Position X,Position Y,Position Z,Velocity X,Velocity Y,Velocity Z,Filtered Acc X,Filtered Acc Y,Filtered Axx Z
0,70.1933,0.0,0.0,0.0,0.0,0.0,0.0,0.0003927017574371183,0.0010307130592631837,-0.0005435872540340372
1,70.2,4.0052349695612324e-07,9.447267701852035e-07,-5.216824630292287e-07,0.00011955925282255822,0.0002820079910996712,-0.00015572610836671886,0.003246597004190385,0.00755340994710317,-0.004196604909705715
2,70.2068,3.0668184773598022e-06,6.7527711588595594e-06,-3.8527023827528166e-06,0.0006646451531787127,0.0014262403585108446,-0.0008239856327286898,0.013101430350485381,0.026764010537119534,-0.01584560307467619
3,70.2135,1.2800191729713858e-05,2.6178099672465233e-05,-1.5501199602034485e-05,0.0022408393997649457,0.0043723651679429,-0.002653177716313186,0.034876803322580335,0.06291393673561475,-0.03983370511288706
4,70.2203,3.9904578050350936e-05,7.592901329415889e-05,-4.6712068438492926e-05,0.005731038929836113,0.010260256485499933,-0.006526489588529742,0.06980005101101887,0.11367365846339489,-0.0763333217700561
5,70.227,9.847366312221016e-05,0.00017615148111514977,-0.00011209851989115252,0.011752270046814131,0.019656898087888855,-0.01299185412865512,0.11348194875200214,0.17235343973020656,-0.12046778403201343
6,70.2338,0.0002091843215929734,0.00035563380200637435,-0.00023275944009031876,0.020809688326947597,0.03313201982130756,-0.02249665181228467,0.1581650003061444,0.23178773978219364,-0.16459681299958778
7,70.2405,0.0003876399951066559,0.0006347047946903944,-0.00042380050289801615,0.032460661975683605,0.05017275411428243,-0.034530531115428385,0.1964823646670947,0.28692011214641233,-0.20170592820770364
8,70.2473,0.0006559528941008897,0.0010465142606719251,-0.0007072857970776258,0.04645489655205122,0.07094767705678522,-0.04884749658447688,0.2232278672664878,0.3361541745548324,-0.22768353677574982
9,70.254,0.0010176328838326367,0.0016008262670181672,-0.0010862333163847613,0.06150927948712712,0.09451859349410324,-0.06427116589510883,0.23501685975601808,0.38132778502271797,-0.24180200530304935
10,70.2608,0.0014886042988372808,0.0023350811122944217,-0.0015785775770248754,0.07701172492603683,0.12143871394014125,-0.08053596958731254,0.2299271095047401,0.42605113480522844,-0.24600634839834448
11,70.2675,0.0020528055414046355,0.003247696090611996,-0.0021720710699506636,0.09140655643747722,0.15098366764739593,-0.09662626710708364,0.2082413405045794,0.4732762773437935,-0.24377088302139463
12,70.2743,0.002717637550920208,0.0043874014253503174,-0.0028838402765000238,0.10413226989067949,0.18422378374630857,-0.11271761717219042,0.17342384567026808,0.5236497611073251,-0.23883530962851043
13,70.281,0.0034489020922588024,0.005742649215080986,-0.003691077097708349,0.11415565289665919,0.22032779527721272,-0.12824859811354397,0.1316808158243836,0.5753307138644413,-0.23391672229171448
14,70.2878,0.004250274371908669,0.007376908821429292,-0.004615740385449471,0.12154207641218184,0.26033679482534616,-0.14371119239861627,0.08985023754919558,0.6246053303787376,-0.22983204497863488
15,70.2945,0.005080356370146339,0.009263239430992231,-0.0056287136721756914,0.12624359470372387,0.3027469692237087,-0.15866889319152405,0.05326064088367769,0.6663302645246574,-0.22546974628740019
16,70.3013,0.005947684938218939,0.011476179259474837,-0.006757984490342471,0.12885304296474936,0.3481176862125085,-0.17346958273996163,0.025001026725010485,0.6944125504142674,-0.21842740358902318
17,70.308,0.006814450015966548,0.013962393078194926,-0.007966918089341194,0.12988280113865722,0.3940356925088808,-0.18740611845318872,0.006344080898241067,0.7032989566892786,-0.2057908477394529
18,70.3148,0.007698072517470508,0.01679979864983101,-0.009285552006523,0.13000616989198172,0.4404953579725208,-0.2004273866003771,-0.0026440480176555437,0.6901032233935394,-0.18473851235537808
19,70.3215,0.008568532962795236,0.019899266667488435,-0.010665572719300567,0.12983276901111443,0.4847189756572457,-0.211519094826067,-0.002634151670856841,0.6560322974925732,-0.15288521025253327
20,70.3283,0.009451716606213661,0.023338571794861977,-0.012133537787945185,0.1299271261120146,0.526841355923451,-0.2202353371283364,0.005464077129607756,0.6072875285862924,-0.1085293071554171
21,70.335,0.010325167936411491,0.026996362255288665,-0.013626733194529282,0.13080461424573964,0.5650363934584577,-0.22549463498664932,0.021246038591462055,0.5553422931980532,-0.051559985232813806
22,70.3418,0.011222290502783863,0.030959836721769884,-0.015164303485582014,0.1330549640985876,0.6006913907985695,-0.22673192120449448,0.04624567405022422,0.5140100262528211,0.014451725926092928
23,70.3485,0.01212824359869809,0.03509538076127234,-0.016672957257772975,0.13737879587600874,0.6337993672627782,-0.2236124884050808,0.0853686950730226,0.4937732686567396,0.08050159350255169
24,70.3553,0.01308861336400351,0.039517738135544773,-0.018169264497134498,0.1450828998021242,0.6668939781117806,-0.21647787611312036,0.14569011904252832,0.4987888267824121,0.13347722495113726
25,70.362,0.014102214370766778,0.04409899164957903,-0.019587234942594876,0.15748456490355298,0.7006443842875163,-0.20679688372611124,0.23180776071445233,0.5285495723821705,0.1612053092206955
26,70.3688,0.01523809886258711,0.04898907420643162,-0.02095727614587025,0.17659910916133062,0.7376151912577106,-0.1961564113549786,0.34146902408980384,0.580266053335289,0.157920049326077
27,70.3755,0.016510108852544093,0.054066324755495304,-0.022240312003777445,0.20310536545217026,0.7779819875651759,-0.18683936712425211,0.4653625963603469,0.648470563400326,0.12568416139306143
28,70.3823,0.018010850198246855,0.05951203852326456,-0.023488454138158203,0.2382891479899248,0.8236985323673439,-0.18026126063488287,0.5898572120998488,0.7226441994265491,0.0716041279571369
29,70.389,0.0197492217335404,0.06519692150024427,-0.02468780520654987,0.28062772821748705,0.873281460762183,-0.17775398366140266,0.6988991070805675,0.7866249340414677,0.0047156027976658355
30,70.3958,0.021824543855321638,0.07131759238281637,-0.025903380715090574,0.32976113113008326,0.9269158576418105,-0.17976822473300735,0.7746928796477669,0.8219593033544762,-0.06512602272595477
31,70.4025,0.024207215897848966,0.07770787319968082,-0.027129010967230846,0.38148425469798725,0.980630654852407,-0.1860915520247773,0.7997222752172971,0.8130809829855598,-0.12735157009120163
32,70.4093,0.026978228041725418,0.08455345472412351,-0.028428313790447073,0.43351931703057756,1.0327756758665152,-0.1960563371565576,0.7608952748965921,0.7508344097842546,-0.171508811018216
33,70.416,0.030038475708151324,0.09162536983693738,-0.029781584240413172,0.4799874490673841,1.0782437607959015,-0.2079049911918302,0.6535616691262667,0.6331818103825168,-0.18915580455619496
34,70.4228,0.033431207956317016,0.09908182664608273,-0.03123671258297485,0.5178749768639413,1.114831771306199,-0.22007393309111883,0.4827479298093408,0.4641531166164925,-0.17581088219362984
35,70.4295,0.03698283227126754,0.1066300562346163,-0.032745061527496226,0.542311385806394,1.1383710909395182,-0.23017948318329748,0.26107900707255205,0.2523670586829686,-0.13179488706132336
36,70.4363,0.04070071349774765,0.11440068952366655,-0.034332208268258446,0.5511830925703702,1.1471092881934595,-0.23662838174687859,0.004998146574937976,0.009705924024249019,-0.06161824297206788
37,70.443,0.04436461844940466,0.12205988642175251,-0.03592137228359195,0.5425198780743233,1.139218144072696,-0.2377489362634735,-0.26870024442959456,-0.24990674787182746,0.027509359148237975
38,70.4498,0.04796152279846645,0.12972022179582804,-0.03752052480964824,0.5153931657676352,1.1138216718324152,-0.23259004198848882,-0.5448747068623009,-0.5117754431830139,0.12721440947653143
39,70.4565,0.05126548663688534,0.137042668913013,-0.03903966280681901,0.4708646964455966,1.071983437772018,-0.22088398701708611,-0.8105402813977094,-0.7617506939421601,0.22910959184686347
40,70.4633,0.05425591729915724,0.1441338209397252,-0.04047878939687708,0.40867373363458465,1.013649511261482,-0.20238853947068383,-1.0546695150467469,-0.9877802069246285,0.32559945901648346
41,70.47,0.056738395507863165,0.150686511444382,-0.04175377748059264,0.3323645376214641,0.9423775050554217,-0.17820491835513724,-1.2681282274591408,-1.1816890545630432,0.4105327959105755
42,70.4768,0.058690997373292655,0.1568087838551644,-0.0428646427610274,0.24193012868146435,0.8582908510574762,-0.14852016412575297,-1.4441492139295669,-1.34020872122493,0.4797620619122353
43,70.4835,0.059979216692143136,0.16225066220587026,-0.04374843848169451,0.14261295157188003,0.7661504476584499,-0.11529945398346836,-1.578995136091437,-1.4644797329895167,0.5314527661080969
44,70.4903,0.06058047123845576,0.16711777439470668,-0.0444080805971673,0.03422662087305092,0.6653531372937869,-0.07871293292033901,-1.6716901191676805,-1.5585982553469464,0.5658374899077985
45,70.497,0.06043622014032414,0.1712249643586995,-0.044808869137441025,-0.07728665016610416,0.560673717630345,-0.04092543731071356,-1.7226946701132932,-1.6277689505041326,0.5843870450473021
46,70.5038,0.05951892583930031,0.1746630068665984,-0.0449541674224873,-0.1925057913115577,0.4505152552813449,-0.001809352408788767,-1.7329178672819878,-1.6760654628494303,0.5887690126798587
47,70.5105,0.05785091966999916,0.1773094299246805,-0.04483767743341252,-0.30540649803243636,0.33946177698254254,0.036582483475913266,-1.7036994789876019,-1.7043235618957941,0.579851211130513
48,70.5173,0.05539533409889277,0.17923077399133303,-0.0444599638190688,-0.4168245522916355,0.22563941909068416,0.07450975603674148,-1.63791217825798,-1.709397136383312,0.5576503989941318
49,70.524,0.0522529182366957,0.18036878149549995,-0.043841923265803634,-0.5212100334395283,0.1140643134967072,0.10997996135598159,-1.5395077478938684,-1.6868698528401747,0.5220374649375653
50,70.5308,0.048376499962098536,0.18076829891912208,-0.04298299846899045,-0.6189129885010891,0.0034408110980630874,0.1426449788832508,-1.3907654089341146,-1.6309118804635694,0.4576404165263358
51,70.5375,0.043954162938777006,0.1804451892001148,-0.04194358393000747,-0.7011876154764627,-0.09989147348836927,0.1676280178283163,-1.1136158162468326,-1.5144494901905294,0.302825549496384
52,70.5443,0.03899142087067674,0.1794498254970282,-0.04077241204702708,-0.7584424045503281,-0.19286255683067094,0.17683430069469255,-0.6035499687279933,-1.273907010459233,-0.026713905376165838
53,70.551,0.03385964405594281,0.17792298543130783,-0.0396505892663819,-0.773431271490784,-0.2629105971160485,0.15803817113993587,0.14729950206044032,-0.8583055974925103,-0.5454269318845258
54,70.5578,0.028728858806094805,0.17600286113408617,-0.038769336376849706,-0.7356232137589913,-0.301831843243398,0.1011538551931249,0.9866266582431983,-0.3090069232537333,-1.160627751501828
55,70.5645,0.02409383525159485,0.17397273385794762,-0.03841032155788207,-0.6479659069882872,-0.3041762988879608,0.006014747483859592,1.681599517880178,0.23764335813820786,-1.7353391326612475
56,70.5713,0.02011077158337369,0.1720029677202405,-0.038810350635468706,-0.5235234071946886,-0.27516668279074025,-0.12367035853877993,2.050636794562927,0.6324029908796877,-2.154131608311662
57,70.578,0.017053087505156477,0.1703161897126769,-0.040134074286208916,-0.3892181086897857,-0.22834914036187892,-0.27147102974133414,2.0375211270520186,0.7926897573718351,-2.3448158756900197
58,70.5848,0.014830477165183788,0.16893552153649524,-0.04250456329586982,-0.2644908148317505,-0.17772973498576744,-0.4257316201590987,1.7032566302400818,0.7254699000792061,-2.281714273503512
59,70.5915,0.013375182740094034,0.16787980393719865,-0.04582630495169502,-0.16992543146401995,-0.1374098468940474,-0.5658330532222928,1.175246492345575,0.5018388638793929,-1.9828738684692278
60,70.5983,0.012420343339134856,0.16702667678489727,-0.05006882386626791,-0.11090968646521743,-0.1135099037828904,-0.6819666275347405,0.5947332722504399,0.2149599443471603,-1.5001640314574927
61,70.605,0.011751354170708413,0.166283935013794,-0.05490275689632125,-0.08878857276628062,-0.10820405774017305,-0.7609984560612792,0.07861772141830205,-0.05345375827802044,-0.9055087115183842
62,70.6118,0.011122481434006338,0.16551387171294332,-0.06021161775979251,-0.09617399685202153,-0.11828514839243268,-0.8004312096659373,-0.3001188002403468,-0.24889481768115146,-0.27714476415936184
63,70.6185,0.010388451565998071,0.16465587999156808,-0.06557072888447985,-0.12293939658344377,-0.13783178336156246,-0.7993034544210182,-0.5146009625353709,-0.34609087148892975,0.31147283304042706
64,70.6253,0.009428986888178902,0.16364029044155703,-0.07088001550191063,-0.15925609689285025,-0.1608710254652916,-0.762251433059,-0.5745969229755483,-0.34489409050818715,0.7997785465614448
65,70.632,0.008242319610142414,0.1624954885345744,-0.07577288440462748,-0.19497294132650786,-0.18086088706636505,-0.6983064483469983,-0.5125984604680581,-0.2635831026193159,1.1466613832703105
66,70.6388,0.0068163642823278235,0.16122096522809065,-0.080240061048249,-0.22442568450141367,-0.19399890895835958,-0.6155690350714116,-0.3707380022417574,-0.13044789531389006,1.3347704325235539
67,70.6455,0.005250920729089314,0.1599094799934205,-0.08406662098565353,-0.24287089855520358,-0.1974892207942124,-0.5266876626621279,-0.19072121634068495,0.02420528136253099,1.3707154324777242
68,70.6523,0.003576929377366431,0.1585889295220831,-0.08734744817104101,-0.2494794990104689,-0.19090797665806183,-0.43826150951089216,-0.007481637463108665,0.1731771112021832,1.281331097510689
69,70.659,0.0019214666686360798,0.1573613739473127,-0.09002095545865348,-0.2446884737441773,-0.17552652327289217,-0.3598003673872501,0.15331704465169674,0.295023408081401,1.1069703565828277
70,70.6658,0.00030616141547833175,0.15624386853452332,-0.09224087364523985,-0.2304013065964512,-0.15315153931229994,-0.29311674631478307,0.27517871940905114,0.37603935396984894,0.8929816889373954
71,70.6725,-0.0011687297251338948,0.15530443230096969,-0.09403148822078322,-0.20986470552692726,-0.12727718712183012,-0.2413950672806483,0.34994083492136435,0.41155755435679475,0.6813894953487791
72,70.6793,-0.0025134152497987066,0.15453156034051943,-0.09553852674950339,-0.18563103702164208,-0.10003809536359379,-0.20185155881362318,0.3768669496309256,0.4053878424865503,0.5045857017649032
73,70.686,-0.0036759115878679583,0.15394635230396536,-0.09679336467628256,-0.1613827952373568,-0.07465087077170518,-0.17272692679158547,0.3612323125663994,0.3673812476276295,0.3819474167379922
74,70.6928,-0.004696969301845114,0.15351553812524832,-0.09788839145367824,-0.13892829710893753,-0.052059181792158474,-0.14933977244251453,0.3122152108405766,0.31018085622543257,0.31947200870820336
75,70.6995,-0.005566940337835179,0.15322795714523554,-0.09881950636096852,-0.12076454945545322,-0.033785886868436435,-0.12860497600255272,0.24067637037469108,0.24604526611069968,0.3116804719676693
76,70.7063,-0.00634300307453811,0.15304700841937255,-0.09961959248215618,-0.10748919663369899,-0.019434326620689633,-0.10671447140563804,0.1574734091943776,0.18438175348225538,0.3448519529660699
77,70.713,-0.007037873260136053,0.15295145571725421,-0.10025249778277984,-0.09993473936584046,-0.009088868041518813,-0.08221248400454587,0.07247890591875644,0.13052665976789068,0.4009711456337242
78,70.7198,-0.00770986065556613,0.15291417112430475,-0.10071373981030672,-0.0977086122308755,-0.0018771887083023483,-0.05344693585605189,-0.005713672634354007,0.08576352666931772,0.46175520207693155
79,70.7265,-0.00837281117428957,0.1529163300628112,-0.10096467272305652,-0.10018706500014869,0.0025216479639583343,-0.02145841123349502,-0.06972866981131152,0.04813393819484389,0.5119527736510996
80,70.7333,-0.009074861518598999,0.1529404731938391,-0.10099118633270558,-0.10629833038502735,0.00457927292660998,0.013660290748474718,-0.11355828297613171,0.013577636353523543,0.5413151613419377
81,70.74,-0.009814178128943907,0.152970120955077,-0.10078010030556836,-0.11439319509122786,0.004270805054855493,0.049350463620890093,-0.13284365083824382,-0.022967179338928907,0.5450683587181794
82,70.7468,-0.010621255610591547,0.15298900080216482,-0.10032342177315665,-0.12298253480519405,0.0012820911474470467,0.08496675179435233,-0.12476484813553952,-0.06666929205335761,0.5231230088283567
83,70.7535,-0.011468613630629121,0.15297681806128738,-0.09964389499488938,-0.12996015774298572,-0.0049187302153374845,0.11787706261350776,-0.08762903955708819,-0.12207930727209147,0.4786434841981916
84,70.7603,-0.012364620852039081,0.1529077161456208,-0.09874083682188124,-0.13357137796588942,-0.01540536262777939,0.1477282823889491,-0.0206774254408397,-0.19243213656642122,0.4166439505721678
85,70.767,-0.01325349846375204,0.15275263287892807,-0.09766746164108515,-0.13176522254563752,-0.030888149817842336,0.1726822193414636,0.07565551395397982,-0.2788529117859922,0.3429361714614707
86,70.7738,-0.01411836540844219,0.15246793386215352,-0.0964244734083906,-0.12260740824564445,-0.052846855115872296,0.1929025549805544,0.19900247772679397,-0.37972496493197455,0.26350512509856655
87,70.7805,-0.014880067484232215,0.15201805870959137,-0.09508275301178379,-0.10476634572121318,-0.08144423520100177,0.2076109962448053,0.34406679728485867,-0.4907589789921562,0.18420938310350826
88,70.7873,-0.015496574434418094,0.1513399026646973,-0.09363758541585193,-0.07655922786291225,-0.11801342506200535,0.21743829667643041,0.501911302759131,-0.6060114856179142,0.11052760454165443
89,70.794,-0.01588158564853355,0.1504033332950652,-0.09216341503914616,-0.03836949276865216,-0.16155952109703578,0.22261256204203644,0.6605571164939436,-0.7195007573327505,0.04697335914677958
90,70.8008,-0.015975984734181475,0.14912955381794563,-0.09064480674289019,0.010605055813373315,-0.21308150158527697,0.22403693685688686,0.8082705662230745,-0.8257286199791518,-0.004254003497933569
91,70.8075,-0.015712842593193135,0.14750997003076313,-0.08914907104069926,0.06794483701885859,-0.27037634533419974,0.2224513324532213,0.9371116589637813,-0.9182857409382494,-0.04401066867474556
92,70.8143,-0.015026479590197771,0.14545510594526567,-0.08764979195606953,0.13392663445041436,-0.3339954445181412,0.21851310420268663,1.0417915352244258,-0.9897562265009171,-0.07410330772169188
93,70.821,-0.013891643075854557,0.14299454191642405,-0.08620434003653038,0.20483053401049744,-0.4005012805097559,0.21296508073469292,1.116472821337628,-1.0346341979274616,-0.09477458721261901
94,70.8278,-0.012241295437029705,0.14003460737911144,-0.08477884707037375,0.28056583034987,-0.47006770105298473,0.2062975563702995,1.1549539307789818,-1.0517777699192532,-0.10519549204617389
95,70.8345,-0.010107582563160779,0.1366544493320134,-0.08341976210134734,0.3563633857295264,-0.5389347010644376,0.1993994493086671,1.1522698341350863,-1.0444848106996338,-0.10477798883724027
96,70.8413,-0.007428362653125702,0.13275573347958158,-0.08208628196348698,0.4316424701633332,-0.607746432004023,0.19280059123859056,1.1054743686680206,-1.0192927681882196,-0.09313267472743342
97,70.848,-0.004302976920990997,0.12846350296889422,-0.08081246649756733,0.5013084946536871,-0.6735164070080781,0.18744283142427295,1.0151099497374685,-0.9826985702845494,-0.06995372968765078
98,70.8548,-0.000678742481080363,0.1236664174218657,-0.07954956086612681,0.5646428112026384,-0.7373911068241822,0.18400000135244185,0.8843909156406933,-0.9330092827035485,-0.033302436276319666
99,70.8615,0.0032799336255242436,0.11852986312733059,-0.07831770290446145,0.6170515489762091,-0.7959086825871662,0.18371879317402257,0.7108938488173653,-0.8482241725082925,0.02474265900002897
100,70.8683,0.007610239191391244,0.11294451459763458,-0.07705256846927729,0.6565677351026269,-0.8468408849708812,0.18837957011552858,0.47426190612885405,-0.679316784355231,0.11504174724492763
101,70.875,0.01207635622084412,0.10715563833694387,-0.0757518096330515,0.6766015274216057,-0.8811818794156827,0.199906649653648,0.13555250685952025,-0.36599870236641197,0.2358343689734362
102,70.8818,0.01665504192756714,0.10113556864212699,-0.07432474321156335,0.6700707392619595,-0.8894268543544164,0.21981876843120335,-0.3314216412688494,0.11871827234801703,0.36136299432716207
103,70.8885,0.021009615064476853,0.09526968606966868,-0.0727626584870698,0.6298018389210064,-0.8615828687687594,0.2464751791791563,-0.8943350917607817,0.7288328779695672,0.45003922118050455
104,70.8953,0.025025583840430746,0.089646907451086,-0.07098278236939837,0.551365448122072,-0.7921755484583847,0.2770177966055888,-1.458101948974463,1.352807410845448,0.4659843722447254
105,70.902,0.028349340716182978,0.0846927191165603,-0.06903181050303776,0.44080078344649226,-0.686686640953365,0.3053618649950213,-1.9074079361670326,1.8582000301180521,0.3967889435308249
106,70.9088,0.03088684494701064,0.08047608649957141,-0.06688118996848616,0.30552399032652866,-0.5534994228671958,0.32717358634383825,-2.1497667457188823,2.1363048417621404,0.25738064153831497
107,70.9155,0.03246188004508374,0.07723725863436456,-0.06465170413544964,0.1646357404419093,-0.4133148652549692,0.3383445727720341,-2.1387715416106228,2.130813552459699,0.08265625326157078
108,70.9223,0.03312563601895308,0.07487788356761707,-0.0623511659944711,0.030586604813418877,-0.2806189779047745,0.3382842922204033,-1.881583662383382,1.8489554983119498,-0.08446416666819151
109,70.929,0.032965704767198276,0.07335046696375655,-0.06011646485720446,-0.07832727697906712,-0.17532627697930153,0.3287906741283404,-1.4336775639521924,1.3560795536886574,-0.20451482701253332
110,70.9358,0.03217026220978528,0.0723978227346786,-0.05793218333238512,-0.15562641637775415,-0.10486320216134172,0.31364506846573836,-0.8846514270507813,0.7572245583162749,-0.2497269273853889
111,70.9425,0.030993001308086007,0.07179733711213396,-0.055881300084518255,-0.1957947483088549,-0.07438623740435493,0.29855888612183734,-0.33804407499258454,0.17047260840251155,-0.20948575106322648
112,70.9493,0.029635979281901557,0.0712766704090485,-0.05388538880090293,-0.20332937703960838,-0.07875102820904964,0.2884738443533998,0.11206810218315845,-0.3013799010438422,-0.09298132540259191
113,70.956,0.028330202228091742,0.07065061663957699,-0.05195478829026176,-0.18645481812696268,-0.10813069402099397,0.2878248155386886,0.4015814891616845,-0.5929162649344145,0.07322534913244548
114,70.9628,0.027165370710544038,0.06977025573776274,-0.049960601735528104,-0.15614268703420933,-0.1507989829832561,0.29870064173605765,0.5075294380500919,-0.6867762655025379,0.25295865977902443
115,70.9695,0.02622445659898957,0.0686169451076249,-0.04788637775149487,-0.124727197012108,-0.19347284690889535,0.32047069678178547,0.44873577132921477,-0.612185851375685,0.40970635776029046
116,70.9763,0.025458800739155234,0.06718295505779244,-0.04560247561122623,-0.10046570293922132,-0.22828893245369092,0.35126522682679767,0.27890654800009135,-0.4320061163438171,0.5138725115909584
117,70.983,0.024824306009678224,0.0655814296692077,-0.04313211815193374,-0.0889357088446992,-0.24977834772019664,0.38615491027442,0.07205828524491546,-0.22211642558576608,0.5481446787719972
118,70.9898,0.02421667954038452,0.06385188610220448,-0.04038626536365843,-0.08977795859466818,-0.25891093669263776,0.42144885098321955,-0.09731874775727382,-0.05178501681611373,0.5103789553648636
119,70.9965,0.02358569622647675,0.06211470013054329,-0.03746107045697182,-0.09857526943764106,-0.2596520399230247,0.451743658476114,-0.17046514768131155,0.029226360711144216,0.41177347357760014
120,71.0033,0.02288310024449211,0.060352024953767236,-0.03431167314147343,-0.10807060761671496,-0.25878183559946927,0.4745496696118706,-0.11431574316905031,-0.003127494318991419,0.27221650608392434
121,71.01,0.022154467255281838,0.0586016182595394,-0.0310894920589758,-0.10943177722187211,-0.26372762536334254,0.48729542963982486,0.07288270690070403,-0.14741883428384103,0.11575537890750828
122,71.0168,0.021459667205284347,0.056748167863883425,-0.02776660923874759,-0.09492117865979191,-0.28140484394736914,0.49002304689812004,0.3623141346807948,-0.38275017720118815,-0.03394962769919479
123,71.0235,0.0209409024453072,0.05474615935999619,-0.024504589405937294,-0.05993397357230676,-0.3162096348253817,0.4837142166280615,0.702671545155589,-0.6766829436239453,-0.15808668607123352
124,71.0303,0.020730170017081048,0.05240680476106261,-0.021261146793335968,-0.002046152376576689,-0.37183583544936655,0.470239492960794,1.0334799197640439,-0.9916387811599933,-0.24604255477916087
125,71.037,0.020973232196183703,0.049664377752206064,-0.018170285642673725,0.07460202673547811,-0.4467990925663823,0.45240562663860157,1.299636227570001,-1.2901895370414531,-0.29680767294607885
126,71.0438,0.02179362848365749,0.04630527709514599,-0.01516360562758069,0.16669099899216538,-0.5411716889221143,0.4319120248595624,1.4622643032135658,-1.5402006560404533,-0.31782932694817245
127,71.0505,0.023236740978204367,0.042321209467338645,-0.012340093750593056,0.26408885012662353,-0.6481022298272261,0.41092734140602694,1.5024571269682587,-1.7146890819751508,-0.32092953698602517
128,71.0573,0.025363326497359607,0.03751780595877835,-0.009617694025730292,0.36137747903683304,-0.7646635079849657,0.3897784600243906,1.415389703565791,-1.781176363404432,-0.31336038157888124
129,71.064,0.028071858089129282,0.032012517496179504,-0.007072233015012904,0.4471394140293399,-0.878706182344263,0.37006064765300384,1.1951427014575826,-1.6902016669126938,-0.28683582616961734
130,71.0708,0.03134160586690915,0.025689065517180545,-0.004613560279035572,0.5145511088453129,-0.9811326350049332,0.35307839233899213,0.8266454793671442,-1.3817369923728502,-0.222490087847921
131,71.0775,0.03491402722328584,0.01887327412024246,-0.0022855414466799624,0.5518433258947876,-1.0534319610974923,0.3418526023945397,0.3085031278946286,-0.8190031570007403,-0.11921498707301093
132,71.0843,0.03866632230412017,0.0116130860419324,2.4163821884379787e-05,0.5517728743508695,-1.081917473700098,0.3374724765951363,-0.3106160861758824,-0.03532446170135259,-0.012152227413331468
133,71.091,0.04222661624783943,0.004453272244765443,0.002289114201188909,0.5110014372079051,-1.0553403762020672,0.3386321142425368,-0.930437510275523,0.8443124381985846,0.04745077398750291
134,71.0978,0.0454329680009517,-0.0024418863842905272,0.00460043273035299,0.43204319605866626,-0.972647455869468,0.3411674531574066,-1.4376506852524484,1.6357849606686985,0.028588231803138155
135,71.1045,0.04797718465168774,-0.008539855945184508,0.006882589776143047,0.32742446087802535,-0.8476419652942608,0.3400734560341594,-1.7468693280318162,2.169293410999738,-0.06188872743081544
136,71.1113,0.04979929739655861,-0.013790991794781507,0.009166915614799194,0.2084910523194201,-0.696809755175817,0.33178708474722207,-1.8201402299672098,2.354413944797546,-0.18663324751173765
137,71.118,0.05081234080493264,-0.01795882878023869,0.011336566402100607,0.0939099651058867,-0.5473206882451576,0.3158698666865151,-1.6676267053272518,2.195927106314363,-0.2978755680709482
138,71.1248,0.051110145074476934,-0.021231238991754754,0.01341017328433214,-0.006320474063426396,-0.41515290337744576,0.29401451044055327,-1.3384498786395476,1.7680032778920216,-0.3576026997061435
139,71.1315,0.05082075162932398,-0.023688353845548682,0.015302215322987847,-0.08006562896718733,-0.3183142171570423,0.27077415781410163,-0.9063002731165697,1.179697569340555,-0.34981713218890653
140,71.1383,0.05012226205471677,-0.02565702720624104,0.017071952505923447,-0.12537248121145317,-0.2607073595173206,0.24973677834355307,-0.45252713254473725,0.5480273340109084,-0.2811286597138158
141,71.145,0.049227043858509664,-0.027345922728262917,0.018695286696832677,-0.14185683108937172,-0.24344055750450808,0.2348405920774707,-0.04924477285606034,-0.022438141212165832,-0.17230067303467891
142,71.1518,0.04828564891407479,-0.029055452544147792,0.020267240158604004,-0.13502403492095302,-0.2593623295205762,0.2274986613847959,0.2541716267652279,-0.4550821253798001,-0.04789596702069037
143,71.1585,0.04745699696856521,-0.030921403521212296,0.021794065395387016,-0.11233475478305815,-0.29763796213969984,0.22827006601248906,0.4364739498729073,-0.710000953535224,0.07137697614378959
144,71.1653,0.0467994105029646,-0.03311478583137641,0.023373938006937132,-0.08107302921716769,-0.3474744820263723,0.23639834914942173,0.5011168855745276,-0.7846786737250446,0.17240367380936747
145,71.172,0.04636295104317378,-0.035607055312593075,0.025004218598892125,-0.049213376690634816,-0.39648655714333075,0.25025257382257765,0.46866831505749706,-0.7072140913045545,0.2493090879060461
146,71.1788,0.046123264481023024,-0.03844280300436209,0.026768287186687518,-0.02128267100078248,-0.43755688161246403,0.2685911284703101,0.3690197270561545,-0.5245528420321933,0.3006944855315712
147,71.1855,0.04604709026437036,-0.041464034614019735,0.028636945263715304,-0.0014559011343113146,-0.4643033003736456,0.28921725273124343,0.23449306947503826,-0.28958915348530584,0.3271500911771477
148,71.1923,0.04607446677510177,-0.04465987380211872,0.03067813626764302,0.009507816055315877,-0.47564940200863665,0.31113304254175855,0.09432693560644258,-0.05069919331759288,0.3301406791170906
149,71.199,0.04614536962284934,-0.047835280247258444,0.03283337686643304,0.011657213123078273,-0.4722331189292955,0.33222236008260375,-0.028900815065363347,0.15468842448562098,0.3118031721383003
150,71.2058,0.04620766836046842,-0.050994596919506606,0.03515901847090984,0.0066659450001838125,-0.4569776670262695,0.35178987652838295,-0.12079556811806658,0.30284780027391683,0.27505899749340873
151,71.2125,0.04621976527582718,-0.05398076942082894,0.03757090186895249,-0.0030549254901114983,-0.43441710948662937,0.3681753169161903,-0.1751008272013108,0.3838795518741651,0.2237021732590525
152,71.2193,0.046157284607062685,-0.05684593714533399,0.04011824421239553,-0.015321741793567803,-0.4082792800738826,0.38104301939076646,-0.1928012747474946,0.40003716648570725,0.16222149842049557
153,71.226,0.04601352274047924,-0.05949744204796407,0.04269956977973644,-0.027592248231372338,-0.38321472071180207,0.389501926084703,-0.18070422841932882,0.3629102231465351,0.09526161500878921
154,71.2328,0.04578846875058282,-0.062029288385160024,0.04536203788653975,-0.03860010173817983,-0.3614459666989518,0.39357692885763607,-0.14943949778597249,0.2899707004780852,0.026954455446823563
155,71.2395,0.045501194289407305,-0.06439696079637441,0.0479976349189645,-0.047153468761855166,-0.3453219172446657,0.3931684539546336,-0.1109189210074742,0.20083391586133925,-0.039388141452363204
156,71.2463,0.04515938587992792,-0.06670948922633307,0.050655260724153675,-0.053378416379166016,-0.3348335033315739,0.3884861946306064,-0.0757775498840472,0.11373095812705938,-0.10104055696171813
157,71.253,0.04478774004106352,-0.06893564408908198,0.05322988794268018,-0.05756063999834939,-0.3296903362954564,0.3800592437360834,-0.05152636745277895,0.042823394493433524,-0.15546984462396282
158,71.2598,0.044385754972500586,-0.07117305520839678,0.055773968894312326,-0.06067026252018885,-0.32837175762082255,0.3681998596853159,-0.041736353187273194,-0.0032770400048622236,-0.20021269044963722
159,71.2665,0.04396959428273349,-0.07337590511965632,0.05819321622128393,-0.06355680905216965,-0.3291953800690751,0.3539635215007721,-0.046128073624016684,-0.021793442498312852,-0.23313133522877513
160,71.2733,0.04352522342844707,-0.07561861412715846,0.06054506979633027,-0.06714050103182954,-0.3304249162538652,0.337758118217461,-0.061352773845730596,-0.015082380503780395,-0.252895502000858
161,71.28,0.043059578078960915,-0.07783293767377837,0.06275166953321194,-0.07185811075518612,-0.33056718721525075,0.32092837040441974,-0.08224791634568979,0.01075175346017117,-0.2593900712917004
162,71.2868,0.04254991256519047,-0.08007418302145429,0.06487580054183352,-0.07804351094203985,-0.328622620924885,0.3038160438961936,-0.10326246172175038,0.047569004583852756,-0.25383689289107614
163,71.2935,0.0420024791564782,-0.08226115684237573,0.0668571682255713,-0.08536944688263963,-0.32420538532080406,0.28763699602597054,-0.1197338264535583,0.08688851070056487,-0.23864183617831722
164,71.3003,0.04139379628552626,-0.08444214896563515,0.06876144219143593,-0.09365492692679843,-0.31726288622624127,0.27244358216964354,-0.12876141864455481,0.1213285153380221,-0.21703376499179647
165,71.307,0.040737887273444524,-0.0865384257839341,0.07054173860677375,-0.10213880802270284,-0.30849138789198616,0.2589881836021051,-0.12948189784675035,0.14566966566306644,-0.19253901325835174
166,71.3138,0.04001475215541458,-0.08860180578320895,0.07226194382149717,-0.1105479913979205,-0.29838508248311335,0.24695452661078943,-0.12272341467136665,0.1574351425350692,-0.16837025543173004
167,71.3205,0.03924843733338324,-0.09056639446735563,0.07388184287027032,-0.11820270174593034,-0.28805930084469106,0.236597428247223,-0.11028053301583707,0.15687431861050768,-0.14689246459046973
168,71.3273,0.038421476987982935,-0.09249081837720954,0.07545938688046432,-0.1250209292542193,-0.27794773146541896,0.22738610416288854,-0.09420938268934016,0.14638836476294634,-0.12937037399165255
169,71.334,0.03756505450611534,-0.09432268692679853,0.07695586380709321,-0.13062757279545684,-0.26887870124695606,0.21932342617347628,-0.07645286565036197,0.12966647552781743,-0.11605181901767912
170,71.3408,0.03666145246823268,-0.09612379769857426,0.0784220372736448,-0.13513773246421185,-0.26085976104015124,0.21190406398886072,-0.05881427956580695,0.11083479917163679,-0.10646711950025198
171,71.3475,0.035744817522588686,-0.0978490435055627,0.07981909228751766,-0.1384846393700186,-0.2541389873149883,0.20512728343618006,-0.04306319014110243,0.09374078086746215,-0.09981326860025883
172,71.3543,0.03479473236161201,-0.09955733795262219,0.08119183898383062,-0.14095217268201163,-0.24830055593792227,0.19862174489125703,-0.03094221351486934,0.08136342894297044,-0.09529858811775418
173,71.361,0.03384430691555633,-0.10120369764989047,0.08250195743679921,-0.14275691569242663,-0.2431500999623806,0.19245839032270923,-0.023992882245615216,0.07541279381767597,-0.09230954859481577
174,71.3678,0.032868199633223995,-0.10283992213831698,0.0837899668203993,-0.14433346146421072,-0.23809239663376697,0.18636789897152733,-0.023290331989397384,0.07627609102411824,-0.09035435657587593
175,71.3745,0.03189537396029001,-0.10441758052295856,0.08501890550742887,-0.14606226179988047,-0.23285040475212668,0.18047947029130182,-0.029333122675839377,0.08328641972248571,-0.08888523131053046
176,71.3813,0.030894047747179673,-0.1059807500523094,0.08622620027900002,-0.148445447938525,-0.22690533917470215,0.1746072272297093,-0.042142569798297676,0.09501592605746252,-0.08723304682048369
177,71.388,0.0298880839643517,-0.10747853964259005,0.08737715981523798,-0.1518422484276197,-0.2201960310577064,0.16896278358711864,-0.061253625156222964,0.10921064900986663,-0.08457980976405208
178,71.3948,0.028838987720760153,-0.10894956406820115,0.08850745133990441,-0.15671547027585003,-0.21245821176919105,0.1634759001383793,-0.08490235508142165,0.12285934456643793,-0.07998089645362802
179,71.4015,0.027767640297775915,-0.11034480323543779,0.08958590309172595,-0.16308973061520424,-0.20403109188384377,0.1584499959279919,-0.10912560353907058,0.13365620097994046,-0.07300405901532282
180,71.4083,0.02663156318196156,-0.11170101652563841,0.0906478003243046,-0.17105059756556829,-0.19485516993996307,0.15387271953639098,-0.12963395818588,0.14154486887880513,-0.064276027684609
181,71.415,0.025455337220055572,-0.11297469193257438,0.09166561616210327,-0.18006162986857044,-0.18534644407025158,0.14995290368667463,-0.14465546674028265,0.1478939948254957,-0.055040383474737456
182,71.4218,0.0241970287513594,-0.11420084404098482,0.09267378801873048,-0.19002909621862768,-0.17528652899173075,0.14656823061551988,-0.15428532853818028,0.1538194906671891,-0.04647155788664854
183,71.4285,0.022889379335870312,-0.1153407351460647,0.09364637258480965,-0.200314012882881,-0.16497947252490142,0.1437555204531054,-0.15878023181028966,0.15991998955109885,-0.03914534226331957
184,71.4353,0.02149124831887074,-0.11642555438857224,0.09461574361394504,-0.21090099211709176,-0.15408501056562954,0.1413536057632511,-0.15874077911876816,0.16682293667076847,-0.03289205042594169
185,71.442,0.020043630895762735,-0.11742022652368193,0.09555618671259482,-0.22122361179606576,-0.14283204469121372,0.13937567741599435,-0.15547243422638365,0.17570935426169834,-0.027314684016082884
186,71.4488,0.01850459429796537,-0.11835019508834702,0.09649829900433124,-0.23143421108467493,-0.1306881213862461,0.137716173094205,-0.15076031985586388,0.18850698347986264,-0.022456594290753053
187,71.4555,0.01692127646386988,-0.11918225506141819,0.09741640765496197,-0.24119797819791064,-0.1176879899784686,0.13634611067636576,-0.14644181820725588,0.20720778569518544,-0.019247132881290072
188,71.4623,0.015248247960475065,-0.11993268928697605,0.09833916351387313,-0.2508692286830355,-0.1030279587150719,0.13505267135639457,-0.143614973541417,0.23247078965930063,-0.019545250797477317
189,71.469,0.013536009208823899,-0.12056849604625926,0.09923905838972762,-0.2602468165863474,-0.08676510375766643,0.13357266471976828,-0.14183214358216303,0.2625589676358368,-0.02550510032741468
190,71.4758,0.011734484146120527,-0.1210954825790219,0.10014009423459075,-0.26961349597248796,-0.06823093528988519,0.1314378778865446,-0.13909005735301422,0.29331138767668846,-0.03852068629276097
191,71.4825,0.009898162224332077,-0.12148523316527012,0.10101004302705827,-0.2785423015767086,-0.04811252329175542,0.1282483288203686,-0.1326964452487393,0.31907878825996167,-0.05856692250934868
192,71.4893,0.007975387802681588,-0.12173834343570245,0.10186593506068381,-0.2869795871441596,-0.02633167389424101,0.12348462224603017,-0.12035169847645268,0.3341648959483129,-0.08430451360016941
193,71.496,0.006028277007353298,-0.12184121887260978,0.10267150558567353,-0.2942475159393421,-0.004377411749762493,0.11698419118391709,-0.10087889338092708,0.33410725487881804,-0.11356399223227658
194,71.5028,0.00400752788173162,-0.12179725502732063,0.10343781648905342,-0.30009046218482394,0.017307954481868136,0.10840136863375306,-0.07436072479783108,0.31627273132009837,-0.143849046224104
195,71.5095,0.001984153917615394,-0.12161569485680529,0.10412925148949277,-0.3039017659087378,0.03688911134353026,0.09799713895979582,-0.0416526543022503,0.27976377974477623,-0.17284831741964557
196,71.5163,-8.750401709157118e-05,-0.12130761317134109,0.10475348070545488,-0.3054093913581635,0.053723149087139085,0.0855996892644006,-0.003563525517686732,0.2251168442859423,-0.19897169593258454
197,71.523,-0.002129775963464035,-0.12090591812595852,0.10528070597783856,-0.3042240254698887,0.06618581968386322,0.07178098905920222,0.03964522147546814,0.15423799943024635,-0.2216597262027182
198,71.5298,-0.004184040366677365,-0.12043037284963021,0.10571634880420211,-0.2999713872400596,0.07368043805979352,0.05634925398892908,0.08789843002122384,0.07053799668799683,-0.24116352219555806
199,71.5365,-0.006168731154228807,-0.11993127081229073,0.10603896131469584,-0.29247362396850785,0.07530524472790545,0.03995298794936458,0.14032816010000643,-0.021080035421546274,-0.25792717370952345
200,71.5433,-0.008119570521956106,-0.11943456793300962,0.10625055787608224,-0.28130266065730636,0.07078383741363084,0.022281294811358508,0.1947074988122434,-0.11452444527974562,-0.2720761205140041
201,71.55,-0.009955582143597977,-0.11899523524654977,0.10633872198071008,-0.26676050998246315,0.06036024809686907,0.004036348361147437,0.2479452419255636,-0.2027622121451311,-0.2832870944175808
202,71.5568,-0.011707781745906885,-0.11863926318785353,0.10630108612340902,-0.24859231422616357,0.04433741622557969,-0.015105718155577003,0.2969489866997284,-0.27778900658949207,-0.29081512843567064
203,71.5635,-0.013303393618858145,-0.11840922525969759,0.10613558268242015,-0.22770973740042053,0.02433062202983076,-0.03429829407983624,0.3387018239849863,-0.3312036026967682,-0.29339325481059697
204,71.5703,-0.014771490100112961,-0.1183217130719127,0.10583628814627659,-0.20408334532168795,0.001408256730435837,-0.0537295106682916,0.3698927365109757,-0.3562760307032698,-0.2893810567522961
205,71.577,-0.016055493158593125,-0.11839005683340853,0.10541389718571237,-0.1792011497473009,-0.02180937956502633,-0.07235734323156962,0.38750362891317075,-0.35045233220792704,-0.2776369395888037
206,71.5838,-0.017185887648910353,-0.1186139710753314,0.10486109968939264,-0.15326781799314046,-0.04404775041230545,-0.09023015568603661,0.39027986656503827,-0.31651317670947554,-0.25839825545055567
207,71.5905,-0.018128043866923543,-0.1189727613875577,0.10420244692455657,-0.12797284409996126,-0.06305383532674036,-0.10638260993639617,0.3796811777839953,-0.262018552617621,-0.2332709827122246
208,71.5973,-0.018914469366521504,-0.11945362138180872,0.10342939435727169,-0.1033287734289062,-0.07837557474712037,-0.12098579220627252,0.35943524624702683,-0.19750574438203503,-0.20470259733684357
209,71.604,-0.019530461811014633,-0.12001520746013519,0.10257693235518925,-0.08054956821096991,-0.08926206057433979,-0.133480477072257,0.3339475859768012,-0.13387115413671993,-0.17562673800356707
210,71.6108,-0.020005573066878057,-0.12064641288107329,0.1016324342151784,-0.0591890364547772,-0.09638659264279463,-0.14431309351923727,0.306690077247459,-0.07980534174817223,-0.14926133905407452
211,71.6175,-0.02033762755194676,-0.12130543968461822,0.10063493551857867,-0.03993170535663842,-0.10033782632557156,-0.1534477114354917,0.279489407511617,-0.04046740594097892,-0.12878994418623782
212,71.6243,-0.020548814835453497,-0.12199433508520616,0.09956363310350978,-0.022182201557122767,-0.10227846796504662,-0.16164123417308332,0.2528475570967303,-0.017735645334116954,-0.11694734925280566
213,71.631,-0.02064462968262859,-0.12268278570841618,0.09845503810428409,-0.006419245360836455,-0.10322918075451203,-0.1692826461930411,0.22696563686822308,-0.011203376913765465,-0.1156518067711084
214,71.6378,-0.020639564611520337,-0.12338817352338768,0.09727655681739494,0.007908972157381618,-0.10423782364892203,-0.17732949700973355,0.2027612956730964,-0.019047491101973357,-0.12568655326412606
215,71.6445,-0.02054421484440498,-0.12409290752466565,0.0960585011159171,0.020553644891999533,-0.10613053494166885,-0.1862692198495927,0.18213356388807916,-0.03856529671001995,-0.1464322622385665
216,71.6513,-0.020364827801972487,-0.12482650343994542,0.09475534461385238,0.03220724994098956,-0.10963296955198434,-0.1970121042863799,0.1673773187023502,-0.0664785079084253,-0.1757646034767256
217,71.658,-0.020112976289274557,-0.1255792738212945,0.09339288530326681,0.04297230608829939,-0.11507460697029256,-0.20969216753050626,0.1603033465823564,-0.0991610712139733,-0.21020751806448953
218,71.6648,-0.01978426894822439,-0.12638809518105412,0.09191533958117132,0.05370632363236118,-0.12281402825318585,-0.22488010367415406,0.16162758636093671,-0.1329569688223392,-0.2453037974459474
219,71.6715,-0.019387848787426123,-0.12724370027204066,0.09035125848677919,0.0646280527254173,-0.13259047651910283,-0.24200977524921646,0.17082209214504215,-0.16463117452401493,-0.276111242198567
220,71.6783,-0.018907886636495907,-0.12818573702738983,0.0886405296459708,0.07653728578350355,-0.14447915740719378,-0.26114576616513546,0.18635549707455146,-0.19193002113804633,-0.297808763341599
221,71.685,-0.01835189229684522,-0.12919843380054788,0.086824359861284,0.08943117381348684,-0.15781838681867463,-0.2809944680689799,0.20612529911881694,-0.21410665048882752,-0.3063716288341637
222,71.6918,-0.017694551311599645,-0.13032216956521514,0.08484495882726503,0.10390441008231673,-0.17269213220118676,-0.3011823066426247,0.22795098551617024,-0.2319815646363744,-0.29909502700500723
223,71.6985,-0.016945785998348426,-0.13153194792979064,0.08276387679172387,0.11960762372418213,-0.18843573782161804,-0.3200362114298246,0.250043687513029,-0.24724261153962823,-0.2748044473073542
224,71.7053,-0.016073369871582466,-0.1328709802197058,0.08052996306123518,0.13698535473645557,-0.20539728862411008,-0.33699723871406695,0.2711431965454662,-0.2614623399472562,-0.23388480300167921
225,71.712,-0.01509379766159771,-0.13430625379708044,0.07822672369237796,0.1554242601839636,-0.22304258521847248,-0.3505369012423626,0.2901239925400567,-0.2756479591587349,-0.17825291038141755
226,71.7188,-0.013969403821035146,-0.13588710522036185,0.07581027017463508,0.17527981056981126,-0.24191371574675985,-0.36018472162335957,0.305376791167411,-0.29032844545661823,-0.11110117380693246
227,71.7255,-0.012726820322232761,-0.13757345657521092,0.07338082222099798,0.1956406368341601,-0.26147474838766527,-0.3650236227464603,0.31439230290419173,-0.30509549861909674,-0.03619154046848697
228,71.7323,-0.01132531645367679,-0.13942178861102156,0.07089961646653203,0.21656638332945966,-0.2821523209685381,-0.3647427756260546,0.3132054315054599,-0.31505908978528446,0.044614609940423905
229,71.739,-0.009807641507551588,-0.1413802422657226,0.06847582117231146,0.23647091402072112,-0.3024607102846964,-0.35877820772236907,0.29267434931746683,-0.3031138608154848,0.13694260184427873
230,71.7458,-0.008140343924005977,-0.14349804253011342,0.06608050674848616,0.2539107281986944,-0.32042172041863626,-0.34572603457936113,0.2303745115238867,-0.23556652845050796,0.2545136501711184
231,71.7525,-0.006403945868530102,-0.14567852727618605,0.06383645575483712,0.2644170495556816,-0.33046924855875176,-0.32413993367457883,0.08943045046071123,-0.07027309378338292,0.402551933936354
232,71.7593,-0.004614146936037724,-0.14790820740139546,0.0617409586135805,0.26199440117749756,-0.3253190235618239,-0.2921827549304597,-0.1620896807424632,0.22473685642611205,0.5558966921348145
233,71.766,-0.002933920297745205,-0.14999178529971158,0.059917227187859454,0.2395657893568901,-0.29664452817347503,-0.2522146855825318,-0.5206213374076931,0.6480944225714942,0.6607029590727067
234,71.7728,-0.0014696779700789505,-0.1518054303695215,0.05835229366226429,0.19109371878034723,-0.23678049235898083,-0.2080598807690972,-0.9331361991665147,1.1473269860857351,0.6635726394315863
235,71.7795,-0.00043664337056255895,-0.15308672470577847,0.05709112551301049,0.11727481838895303,-0.14569542891204712,-0.16840822348604773,-1.3138587128741746,1.6252376693480042,0.5433956531952736
236,71.7863,3.301568420708558e-05,-0.15366947421452717,0.0560441549690187,0.02086019771979919,-0.02570148542585092,-0.1395242894527881,-1.5777751654927872,1.973579084536143,0.3228812829313997
237,71.793,-0.0001844560851944989,-0.15339207172460276,0.055151068316034633,-0.08577714380973474,0.10850819883600889,-0.12706874128835596,-1.668189791712589,2.1116684074124574,0.056256759002372786
238,71.7998,-0.0011346904099134236,-0.15218706146393526,0.054271363769937256,-0.19370353993119277,0.24590658371333984,-0.1316678899168176,-1.5687012651508063,2.0091363189531166,-0.194192830247628
239,71.8065,-0.002748455027723461,-0.15013254561463646,0.05332615053093552,-0.2880172415049957,0.3673817295106395,-0.15048531575555008,-1.3021408423369523,1.688480864433622,-0.37859625077563996
240,71.8133,-0.004958999936721017,-0.14730545951624407,0.05220661036349467,-0.36214302584738317,0.46411418178144187,-0.1787912040800728,-0.9210139839470525,1.2126853091450402,-0.4703441388498132
241,71.82,-0.007540959224692169,-0.1439891247598805,0.050905548562651795,-0.4085910899654713,0.5258364917606592,-0.20958545288823768,-0.4928321068794497,0.6660979800580584,-0.46701092909601394
242,71.8268,-0.010384761094234776,-0.14032258703736247,0.049383820361209634,-0.42782122460433664,0.5525569560367648,-0.23798166518215844,-0.08391142456064518,0.13529292113582603,-0.38463842570459256
243,71.8335,-0.013232457296864645,-0.13663935018425935,0.04771953210656886,-0.42223734334550717,0.5469167314575194,-0.258820798890081,0.2538808051868008,-0.3069773524282867,-0.24969000732225033
244,71.8403,-0.016019367340936754,-0.13302461424289067,0.04592086612042531,-0.3974420813817808,0.5162408983570574,-0.2701986087993254,0.48977009567945945,-0.613041599311524,-0.09154932304952036
245,71.847,-0.01856075669216089,-0.1297174710247429,0.044107404735401756,-0.3611816055513586,0.4709660324340498,-0.27113314792452464,0.6139730414728742,-0.7650931714982372,0.06310261565762217
246,71.8538,-0.020875320562914877,-0.126689275788401,0.04229279355612561,-0.31957247408090894,0.4196796253119177,-0.26257602244982464,0.6339536046526909,-0.7730709710820002,0.1935397250194922
247,71.8605,-0.022883970881072056,-0.12403593415186946,0.04058634516351734,-0.2800246358171998,0.3723626542503208,-0.24681155743361788,0.5698545107432187,-0.6672240301285537,0.2863193963524861
248,71.8673,-0.02467256183976955,-0.12163487025828085,0.03897851639899975,-0.24603152850572024,0.33383260857003066,-0.22607925565990553,0.4496549791103871,-0.48835574242972585,0.3354766110301794
249,71.874,-0.026238045556901256,-0.1194826193133784,0.03753834218322068,-0.22127704377274568,0.3086303600580406,-0.20382349531923935,0.3038539589835661,-0.2787828071581593,0.34197293080699304
250,71.8808,-0.027690107102235385,-0.11742412082255127,0.03622653913408557,-0.2057998813256307,0.29681037253831943,-0.1820009308970613,0.16033173155231828,-0.07571816081417498,0.3125218559593492
251,71.8875,-0.029046868367254394,-0.1154336225783194,0.03506990708636306,-0.1992034813660514,0.2973682078285792,-0.16326236693007626,0.040457999374866147,0.09269827095293204,0.25786672568340446
252,71.8943,-0.03040174049222328,-0.11337729259539112,0.03401056563168978,-0.19928832009548214,0.307434728326944,-0.1483086491503746,-0.04300245313630728,0.2092133220017651,0.19061999385370612
253,71.901,-0.03175118443438472,-0.1112650059747162,0.03305140523843878,-0.2035307671171859,0.32309859127797624,-0.13800788614864293,-0.08613462181098976,0.26758354393983624,0.12292791775574909
254,71.9078,-0.033155438290406396,-0.10900685632007193,0.03213418996558257,-0.20948507288929039,0.34106307185285284,-0.1317613117503062,-0.09244485268443561,0.2712009295876093,0.06441717605479047
255,71.9145,-0.03457698093172505,-0.10666655923223954,0.03126083884657827,-0.21485601407091703,0.35753307376778926,-0.12894051481778168,-0.07104278319162267,0.23013423400686842,0.021445879635051113
256,71.9213,-0.03604993552129953,-0.10419138636221226,0.030386194457202777,-0.2183659240393277,0.37045894682864566,-0.1283078349986026,-0.03422521977549668,0.15753406972998657,-0.0024707658338448983
257,71.928,-0.03751595815855723,-0.1016844706904573,0.029525456506795417,-0.21925277364986337,0.37787408951667134,-0.12862886661572467,0.007230147347525176,0.06817760849479362,-0.007301208639532459
258,71.9348,-0.03900079370000525,-0.09910961321648619,0.028650260234333712,-0.21746356207024634,0.3794369322397211,-0.12878180175542703,0.04643126606964467,-0.021305371346889056,0.0027144309486920345
259,71.9415,-0.040444111032754346,-0.09658016488564375,0.027790032643692706,-0.21337743277963628,0.3756222709957875,-0.1280025536594444,0.07794760813791735,-0.09481020827855219,0.021005327779802088
260,71.9483,-0.041875194517786936,-0.09405270383138102,0.026926730506572107,-0.2075294745829907,0.3677486273169596,-0.125909839611381,0.09744232674261494,-0.14133338332479678,0.04175862645365247
261,71.955,-0.04324349910681274,-0.09162167290105419,0.026094501418178505,-0.2009196564697887,0.35793224740800217,-0.122516753939132,0.10375584325357125,-0.15747025088183356,0.061524492114048306
262,71.9618,-0.044586784424577516,-0.08922221879191297,0.025277315129591107,-0.1941642605199471,0.34778954939840767,-0.11783215446898448,0.09884965013291662,-0.1467260315806658,0.07897439115119814
263,71.9685,-0.04586725674712641,-0.08692105702110438,0.02450682314652329,-0.18806628352397117,0.33912441203604293,-0.11216545241661305,0.08676843969259115,-0.11703459695879442,0.09351599562224874
264,71.9753,-0.04712800973999322,-0.08463712224057099,0.02376650786391317,-0.1827434202604734,0.3326211116504092,-0.10557433658641606,0.07287302999136697,-0.07801013366173246,0.10416246536801492
265,71.982,-0.04833748193317707,-0.08242141547682633,0.02308266767719801,-0.17829305531706321,0.3287838924529645,-0.09855706243318509,0.06259291885840434,-0.03879209405132444,0.10943837716828
266,71.9888,-0.04953597892823382,-0.08019081660775404,0.0224371247481151,-0.1742060608761828,0.3272745984508089,-0.09130850494418738,0.05998280154504999,-0.0064741284236401134,0.10795784613275906
267,71.9955,-0.05068920827955118,-0.07799716127561274,0.021848127427871133,-0.17004150668076387,0.3275478887546439,-0.08451159065078387,0.0667832710784742,0.014792891219754412,0.09893539873874559
268,72.0023,-0.05182860294492937,-0.07576545083598363,0.021293995880764187,-0.16507457137172618,0.3288375346658419,-0.07846827614541552,0.08218333078739334,0.023885721858175116,0.08231359482743908
269,72.009,-0.05291420147973149,-0.07355716155607153,0.020783784625899797,-0.15898469274854832,0.33035329515915013,-0.07383359097839615,0.10318825032086835,0.022252951276719272,0.05876293075051529
270,72.0158,-0.053969382995717616,-0.07130673964619488,0.020291744683317726,-0.15136281195332837,0.3315355018635528,-0.07088403919283562,0.12540455615774185,0.013203382357718991,0.029699003859919883
271,72.0225,-0.054953866079527014,-0.06908388271100595,0.019819786300490153,-0.1425127354526801,0.33200388177542567,-0.06999906015878295,0.14398548843368214,0.0010537695816926565,-0.0027608704518684306
272,72.0293,-0.05588910992826194,-0.06682724170178672,0.019339410170569,-0.13255898476296604,0.3317140621113558,-0.07128803687658855,0.15454395151404987,-0.009745940472614258,-0.03589767240974969
273,72.036,-0.05674331077227848,-0.06460752120878603,0.01885050326197588,-0.1224263418093254,0.33088907012814683,-0.07465432389758524,0.15388650520689212,-0.015366229702180259,-0.06656971424249016
274,72.0428,-0.05754244066838096,-0.06236070328118314,0.01832492969550076,-0.11261186292675478,0.3299397321081563,-0.07992613683042762,0.14046594298396595,-0.013105987079611421,-0.09154067162243332
275,72.0495,-0.058268874850495256,-0.06015172634030251,0.01776747344411854,-0.10423416158513471,0.329456369647744,-0.08647871432856771,0.114545337181504,-0.0016072229988267077,-0.10791513469555881
276,72.0563,-0.05895582855123754,-0.05790943711001723,0.017154310221552584,-0.09781104451558417,0.3300404627892622,-0.09386340995558014,0.07809456322077649,0.019125142007516804,-0.11356409644484099
277,72.063,-0.05959878197216649,-0.05569080478824061,0.01650110141008126,-0.09411534979130015,0.33223784221777025,-0.10112429496096345,0.034399760019946164,0.04776152752414718,-0.1074520874520984
278,72.0698,-0.06023629291939539,-0.053416909455911786,0.015791089529710436,-0.09338786998195117,0.3365549025849846,-0.10770272867756438,-0.012581437778551358,0.0817142503833226,-0.08984601598379086
279,72.0765,-0.060869845114018634,-0.05114009606490908,0.015052722707385679,-0.09573218811467878,0.3430908857745342,-0.11270527798670531,-0.058777941574351684,0.11723643696413696,-0.062428032874606625
280,72.0833,-0.06153883558143656,-0.048776828750115055,0.01427604475745166,-0.10102971406711138,0.35198773622387647,-0.1157294131704141,-0.10010362026000602,0.1495948173781112,-0.02827078115673425
281,72.09,-0.062241310782678944,-0.046382961829845144,0.013498473203047742,-0.10866437585569827,0.36259940415421366,-0.11638149859162894,-0.13229006351355707,0.17341681949615162,0.008421763954991203
282,72.0968,-0.06301232582650997,-0.043876866589204165,0.01271288521387946,-0.11810475468289032,0.3744874313286057,-0.11467379234027467,-0.15084250550831396,0.18312477021127962,0.042795169912953936
283,72.1035,-0.0638368698540973,-0.04132856934362713,0.011956977884382719,-0.12802779086575042,0.3861983136203259,-0.1109701866141433,-0.15120766994352314,0.1733461713156481,0.06993995860695175
284,72.1103,-0.06473925228580128,-0.038666955541974905,0.011220003976871555,-0.13737880669430935,0.39662927510110435,-0.10578684500683955,-0.12924475500345006,0.13949560924025142,0.08551702593340067
285,72.117,-0.06568294603660378,-0.03598553182756986,0.010530145200834935,-0.14432082041052324,0.4037957142724312,-0.10014114783962828,-0.08206521326904781,0.07864571053025607,0.08633398705050799
286,72.1238,-0.0666746393123244,-0.03323189151958046,0.009866995867558254,-0.14735367244855274,0.40609849395994024,-0.09490277371238336,-0.008895033635145225,-0.00958154046349849,0.07077351374940508
287,72.1305,-0.0676531387147605,-0.030525568951177993,0.009243229981248302,-0.1447357014131873,0.4017589891458719,-0.09129599832057594,0.08858421303427111,-0.12250990476648746,0.039014168149059295
288,72.1373,-0.06860388683910022,-0.02783634849954731,0.008626055111228537,-0.13489609986326884,0.38918820251040226,-0.09022602227351594,0.20652170548623033,-0.2545087700005043,-0.006923817481841911
289,72.144,-0.06944762113029687,-0.025300555310541803,0.008013819927715318,-0.11696488258314383,0.3677649882364649,-0.09253074892420773,0.3392918162734173,-0.39759866072200023,-0.06323042527008359
290,72.1508,-0.07015016409399089,-0.022906311399096217,0.007363326576970638,-0.08966540085632313,0.3364243974829948,-0.09879082482427372,0.4794647755718903,-0.5423574720905683,-0.12451960089965797
291,72.1575,-0.07063020047857091,-0.020786674413820053,0.006667428929878761,-0.053629042302000184,0.29630306080886554,-0.10893981609882822,0.6174563908327709,-0.6789075277000537,-0.18440848710160818
292,72.1643,-0.07084082512713355,-0.018939212353081325,0.005878942342437472,-0.008319383745850367,0.2470681335261855,-0.12296800373690087,0.7414551807616762,-0.7977293427396591,-0.23632005328788241
293,72.171,-0.07072270763683546,-0.01746963462539228,0.004998882592404463,0.043578336073589484,0.19161178518635624,-0.1397363992576645,0.8382745600262547,-0.8903225233677265,-0.2740979997904922
294,72.1778,-0.07022983056586102,-0.01637529945396681,0.003984445673706639,0.10138550833068977,0.1302515005270949,-0.1586274003594144,0.895458109885135,-0.9499738619265298,-0.2924743561754749
295,72.1845,-0.06935249182897563,-0.015714200748156982,0.002857795870434,0.16050665193379804,0.06709139672971681,-0.1776859737520698,0.9041475218142815,-0.9725748501810192,-0.28765508515989424
296,72.1913,-0.06806087334242705,-0.015476723040197076,0.0015876695651849025,0.21938113822763994,0.002754987964390082,-0.19588058661540173,0.8615956606737143,-0.9569804175482383,-0.2580314361813059
297,72.198,-0.06641129759325144,-0.01566294352916649,0.00022447424425056737,0.2730295331684278,-0.058343193626943436,-0.21104338978320827,0.7714233877264339,-0.9028048466964923,-0.20351352574158588
298,72.2048,-0.06439499467379736,-0.016253127615512848,-0.001247427645494257,0.3200007372581454,-0.115240361180488,-0.2218689307291749,0.6373206814880239,-0.8036352776200913,-0.12116234534188992
299,72.2115,-0.0621312046911422,-0.01718423540861864,-0.0027476782830224487,0.3557574665200145,-0.16270226362741755,-0.2259670804736017,0.4510887678080122,-0.6410713320499587,-0.0035824229448698634
300,72.2183,-0.05963925267036615,-0.018407380183322792,-0.004267847607727566,0.377169598414295,-0.1970461995209488,-0.2211415444397758,0.1910964688691901,-0.38896008701230134,0.1483082267684781
301,72.225,-0.057108477753464136,-0.019773664829614075,-0.00569917710545023,0.3782856006614916,-0.2107999635513782,-0.20612099219417135,-0.15712615289345766,-0.029694724071635592,0.3089067180893191
302,72.2318,-0.05461902933817757,-0.02116239886582618,-0.0070166292042133085,0.3539051097155557,-0.19765122356907353,-0.18136491920601755,-0.5740850793973195,0.42404717525288244,0.43356884060593714
303,72.2385,-0.05242095740149559,-0.022339279425740054,-0.008130843543849717,0.30223576690641485,-0.15365640625622362,-0.15123637620808167,-0.9986930273619178,0.9151238247754249,0.48352261516781164
304,72.2453,-0.050631680919435394,-0.023127431037968604,-0.009054038524532865,0.2240220219349468,-0.0781528914581117,-0.1202915592870274,-1.347066496907084,1.3493514157090514,0.4445636060686701
305,72.252,-0.0494490073555098,-0.023323360664669737,-0.009774747345434267,0.1290148628192246,0.019666435726386503,-0.09484540217623666,-1.5448839657600013,1.628199446162567,0.32999934807688525
306,72.2588,-0.04892300694600273,-0.022813326158611386,-0.010362515479840118,0.02569113997700792,0.13034371311434126,-0.0780275785314084,-1.5539653097538704,1.691195087978024,0.1743949883242636
307,72.2655,-0.04907402954510185,-0.02158439625623055,-0.010863675827855999,-0.0707725128423549,0.2365010338645064,-0.07157252535372226,-1.3823197870473969,1.5401583775471144,0.022092246926845693
308,72.2723,-0.049834291796316585,-0.019661899053213708,-0.011357757772357799,-0.152834031632621,0.32893931996411246,-0.07374569361743037,-1.0788408356598798,1.232218652914158,-0.08726915610428056
309,72.279,-0.051056031109061616,-0.017228552943852515,-0.011875774946085525,-0.21186427067959768,0.3974326529800646,-0.0808862985402139,-0.7179977258986109,0.8526697696922438,-0.13008578748490632
310,72.2858,-0.05262088023255387,-0.014374480565138813,-0.012452223773913288,-0.24838547152411602,0.442000399582991,-0.08865747435034554,-0.37733346876572826,0.48399063580502083,-0.10298462332377137
311,72.2925,-0.054338882361581464,-0.01133969541899992,-0.01305991001315375,-0.2644509849013232,0.46390561418856135,-0.09274140303461628,-0.11168935095156476,0.1827885427630446,-0.021327265989385186
312,72.2993,-0.0561427227788448,-0.008167695854789096,-0.013683098728584878,-0.2660903142939033,0.4690354341089645,-0.09054939562164206,0.06252315212728332,-0.028936762101472228,0.08706919240050742
313,72.306,-0.05790061988974102,-0.005045945958861339,-0.014259134644167493,-0.25865509194416164,0.46283020646717504,-0.08140162395538547,0.1637997367423586,-0.15994596122856253,0.19138248165050367
314,72.3128,-0.059614584249259195,-0.0019439900138535035,-0.014760880784390359,-0.24545207262012886,0.4495097773588786,-0.06617077022784594,0.23218064163941668,-0.23955573069956357,0.2654160031574702
315,72.3195,-0.0611988578960992,0.0010076924566465627,-0.015142921360381499,-0.22746543389862245,0.43158946756529726,-0.047871192754426375,0.3153198694433105,-0.3059257749146697,0.29161014132807683
316,72.3263,-0.06265858679484435,0.003863004051173787,-0.01540555536073731,-0.2018665951441707,0.40820806023702977,-0.029374101467889442,0.45243162794870223,-0.3953212878759488,0.26314820801954136
317,72.333,-0.06388882167490914,0.0064957559873293335,-0.015553132478446913,-0.16536769741275478,0.37768804010849066,-0.014678769490233785,0.6585689025759452,-0.5336864537809781,0.1841672628079082
318,72.3398,-0.06483457093590281,0.008920620869159374,-0.015624411112035374,-0.11279384993838965,0.33550751337110435,-0.006285534506377434,0.9182077047255767,-0.7313772811034978,0.06755973108544248
319,72.3465,-0.06535800003841158,0.01098002724757639,-0.015666680652102315,-0.04345364334759663,0.2792406592898426,-0.006332238647916569,1.1924589481631689,-0.9813458042650601,-0.06898137199113222
320,72.3533,-0.06535565321679151,0.012624676875098098,-0.015741067830351323,0.044143885000556174,0.20447981939312893,-0.015546343190032508,1.4347357539964372,-1.2608553880450706,-0.2073648571168517
321,72.36,-0.06472530135748739,0.01368682433711269,-0.01590461268890319,0.14402084912021962,0.11257912449205873,-0.03327301757175527,1.6054481151352336,-1.5365365097050376,-0.33222252405438907
322,72.3668,-0.06337348620588376,0.014077664251781308,-0.016217386826856847,0.2535718425280009,0.002373791586973817,-0.05871937594404796,1.6801673003288728,-1.7687036291176716,-0.43095583457736825
323,72.3735,-0.061308251374728104,0.013688795283843883,-0.016711961226410648,0.3629161667713433,-0.11845408052335833,-0.0889147731762855,1.6481962885635988,-1.9092110028333487,-0.48817061661603317
324,72.3803,-0.058483446317009566,0.012451904645223486,-0.01742637851089314,0.4679088502048966,-0.24533728377684594,-0.12120795755390945,1.5007078744152003,-1.8962260416427184,-0.48035537392974953
325,72.387,-0.05504938688569651,0.010416895202989943,-0.018333964092428514,0.5571835173519976,-0.3621282213679446,-0.1497131115613279,1.2167496031422396,-1.658807170017724,-0.38732127367678415
326,72.3938,-0.05103575390659999,0.0076363999850155686,-0.019420472459625356,0.6232967706178496,-0.4556644898011859,-0.16984817290840848,0.7660961688554534,-1.1465001659485918,-0.21656250587992815
327,72.4005,-0.0467593220940636,0.004415601171753844,-0.020583701651761162,0.6532500390954492,-0.5057679917701896,-0.1773844217592534,0.14566005497474396,-0.3786148574783483,-0.012835557948386292
328,72.4073,-0.042366485102982285,0.0009936915114588099,-0.021773319843553907,0.6387608406319616,-0.5006760259617827,-0.17250328170855442,-0.5802150722172693,0.5313313307357632,0.15922901816910515
329,72.414,-0.03829254626110056,-0.0021474501100481394,-0.02288456987928574,0.5773403061993024,-0.43697818941411964,-0.15921314686835683,-1.2893823836274465,1.4075855844677638,0.2453132495688752
330,72.4208,-0.0347224581791911,-0.00472421086897653,-0.023914033820176265,0.472685600244911,-0.3208926220355895,-0.1435703651583414,-1.8493852759653873,2.074012508139807,0.2238396364835126
331,72.4275,-0.031996430812473865,-0.006381035148563941,-0.024839017988604755,0.34105391220859593,-0.17368178978191387,-0.13254431198469574,-2.1573898414191683,2.4069806970887964,0.11178559295921989
332,72.4343,-0.030167100430535155,-0.007021079593801364,-0.025732719081315247,0.1969844354205664,-0.014566576464432518,-0.13030895057727676,-2.1634919608171956,2.365147619126391,-0.04474340857654766
333,72.441,-0.029292354559999387,-0.006639112897618098,-0.026631676399431776,0.06413373488825691,0.1285864857727129,-0.13803651751683843,-1.8803890313644276,1.9923299480513394,-0.19047824202441874
334,72.4478,-0.02922560357935424,-0.0053807140755493706,-0.027623842511854586,-0.04450109352203299,0.24153081483582553,-0.1537770449605285,-1.377749081108353,1.3950572139956574,-0.2816062001861298
335,72.4545,-0.02975936592204883,-0.0035311404455236196,-0.02871796100697042,-0.11483094907348416,0.31058071651555336,-0.17282549089518642,-0.7630417834368285,0.7067727635387443,-0.298214968518902
336,72.4613,-0.030644143526309103,-0.0013329109275679435,-0.029954779390304134,-0.14539775806195268,0.33595737700097766,-0.1909446218501107,-0.15370735493223958,0.054315240232718096,-0.24520772559318585
337,72.468,-0.03159670582595279,0.000872906545865572,-0.031276845111841346,-0.13894919705517256,0.32249560014244594,-0.20370186219030376,0.3499969731108029,-0.4640821691317308,-0.14311361195108063
338,72.4748,-0.03242446352207838,0.0029237978558267074,-0.0326801159204786,-0.10450894886417726,0.2807077263168567,-0.2090248462325169,0.6829230109877302,-0.7892052557459044,-0.016531480086238656
339,72.4815,-0.03295904862346635,0.004618237261622225,-0.03407003064544226,-0.055068693341304376,0.22509508138367196,-0.20587507166739208,0.8220032615639814,-0.9036041676867907,0.11240838131864685
340,72.4883,-0.03315152368089331,0.005952484225799693,-0.035431624403173725,-0.0015416176666371434,0.16733049631567795,-0.19459368060666454,0.7833622354586008,-0.8288512420129276,0.22593918837461505
341,72.495,-0.033008452891770304,0.006914510107322436,-0.03667621476136164,0.04424931591225183,0.1198414086160875,-0.17692582929966316,0.6104812683540566,-0.6166828674418848,0.3118576601688988
342,72.5018,-0.032597682648509485,0.007621720003954595,-0.03780259781835861,0.07656546151743013,0.08816150215812679,-0.1543633051112902,0.35873336736840417,-0.3334499043467765,0.3648297433780461
343,72.5085,-0.0320360021427976,0.008171191915227255,-0.03875420072392968,0.09110036108325621,0.07585996389353462,-0.12969726371610674,0.0836986547596459,-0.04100018559299325,0.38598704231365266
344,72.5153,-0.031425993730884755,0.008707173917216895,-0.03954921486732276,0.08831387771468217,0.08178180139757385,-0.10413042551720901,-0.16726989793991023,0.21860588304861106,0.38080470551004436
345,72.522,-0.030892588086715547,0.009326213303058798,-0.040165749482753484,0.07091168770874198,0.10300607497288859,-0.07990975819320009,-0.36244040923487103,0.42744593406773423,0.35645520969600103
346,72.5288,-0.03050662250494066,0.010141423971870797,-0.04063264823319339,0.0426076010486047,0.13676176879540408,-0.057413403700922384,-0.4864459454969302,0.5849431327306842,0.31824765526517407
347,72.5355,-0.030333358942209964,0.011198770790011758,-0.04095293013799698,0.009112865438208717,0.17886414706780246,-0.03819313504648871,-0.5331100232002405,0.6966233666521827,0.26680367502533303
348,72.5423,-0.030388344722128393,0.01258081726229562,-0.04115977484159679,-0.02528515364951553,0.2276201094863729,-0.022643542482880554,-0.498543440272851,0.7656485556293114,0.19955431445455174
349,72.549,-0.03065439710741402,0.014277146275596068,-0.04127682721265187,-0.05413346882369556,0.2787467601548522,-0.012297463802169383,-0.37957878958290814,0.7906103877090519,0.11537297424550513
350,72.5558,-0.031085531175725118,0.01634941883034459,-0.04134537442025366,-0.07267066891489367,0.3307451677125062,-0.00786347961012811,-0.17638248912930338,0.7689078251023184,0.017609542481359958
351,72.5625,-0.03158064509090526,0.01872731593348899,-0.04140562072160209,-0.07512452964645146,0.3790748630773917,-0.010120490941653794,0.10168871084986447,0.702213784804977,-0.08631136479877319
352,72.5693,-0.032031384278745335,0.02145260364201599,-0.041505417900018785,-0.0574458197183077,0.42248034531309536,-0.01923162035738151,0.42852502851091195,0.5995883907209983,-0.18694647001769465
353,72.576,-0.03228553893563029,0.024401566479864256,-0.04168509035897598,-0.018421242038450643,0.45780706897062035,-0.034401949480626984,0.7593554062591259,0.47573199330872773,-0.27482757664487517
354,72.5828,-0.03220669455691864,0.02760781772374098,-0.04198898847059973,0.04161076518889519,0.48520800275608467,-0.05497984805560485,1.0411037427767424,0.3460673135065949,-0.3423376235281112
355,72.5895,-0.03167797412637687,0.030921259075932805,-0.042437432469644605,0.11621622900279402,0.5038789680481771,-0.07888403225639774,1.2298336013374978,0.2222636124727751,-0.3852887701309152
356,72.5963,-0.0306005612393117,0.03438531878008823,-0.04306324697008054,0.20066991425174432,0.5149621214095459,-0.1051790561071581,1.3030720484892748,0.11013848086579117,-0.4033424693181466
357,72.603,-0.028973870796030372,0.03784876189439336,-0.04385626038955144,0.28490932254901113,0.5189014948017069,-0.13154136761567353,1.2611157250168117,0.009773247998786452,-0.399107574169248
358,72.6098,-0.02676645659732622,0.04136898334112465,-0.04483868246442523,0.3643301476568916,0.5164577542349931,-0.15740630146431928,1.1208461282314375,-0.08306506788658972,-0.376624555037131
359,72.6165,-0.024102160087781724,0.0448008634481986,-0.04597217200498993,0.430982243252502,0.5079840687729151,-0.18094878527166247,0.9079963346894275,-0.1748679007511011,-0.3399919354743904
360,72.6233,-0.020994752517402553,0.04820449100173161,-0.04727433367757127,0.48296115980041565,0.4930828587370358,-0.20203994195823652,0.6509373105148962,-0.27204402473652406,-0.29256672404803824
361,72.63,-0.01764584632682097,0.05143652358551987,-0.04868626696663672,0.5167123299261696,0.4717029871706193,-0.2194326816437014,0.37642434274579223,-0.378744084746366,-0.23685592208289521
362,72.6368,-0.014077438250183488,0.05454497772040702,-0.05022507474471352,0.5328194573204009,0.4425482289728803,-0.2331578413201726,0.10665503808957955,-0.49565531583283406,-0.17478430873510303
363,72.6435,-0.010511523748679908,0.05738724177045304,-0.05181833441400259,0.5316326326791977,0.40588880089043194,-0.24244205995948867,-0.142781137450624,-0.6202316445886386,-0.10782071428965531
364,72.6503,-0.006953824038525383,0.05999220067473941,-0.053483345692902515,0.5147496350135614,0.3602755827233908,-0.2472671397170773,-0.3635678755882575,-0.7477841816184926,-0.03689140505522496
365,72.657,-0.0036059425478695757,0.062227716202950395,-0.05513995445887354,0.4846179741381654,0.30704248539978424,-0.2472429396776246,-0.553618486161497,-0.8725935022010217,0.03762803707267725
366,72.6638,-0.000454353718339069,0.06410459005031262,-0.0568038246249715,0.44231991690044203,0.2449792344127656,-0.24213063858659864,-0.7149701827439523,-0.988786005492995,0.1156983249315921
367,72.6705,0.002336790647553542,0.06551704900921676,-0.05839166830744162,0.3908575057529179,0.17665030555803712,-0.23185255020979678,-0.8515090711663147,-1.0910980711782212,0.19715938719468773
368,72.6773,0.00478845799660472,0.06646130276951627,-0.059914054068927136,0.33022112632113176,0.10107138864776599,-0.2159079678742849,-0.9670761995068788,-1.1756386033139476,0.28104499859022036
369,72.684,0.006777383764431633,0.06687258118938688,-0.06128954716345607,0.26348805810525167,0.021698288925641185,-0.19468698571674392,-1.06423101247955,-1.240422192537528,0.36490663010756746
370,72.6908,0.008318789901981608,0.06673381510031666,-0.06252165067911078,0.1898666882330852,-0.06251184453454102,-0.16769640124061047,-1.143795589882539,-1.2851789364743422,0.4445856224827353
371,72.6975,0.009332387338655351,0.06602933277742556,-0.06353963802490185,0.11269971077358469,-0.14778138617892983,-0.13618041839809614,-1.20511241076959,-1.310365364655802,0.5147385169919423
372,72.7043,0.00982079540726032,0.06472668161758946,-0.0643426892523886,0.0309497211690878,-0.23535130789060438,-0.10001111909806218,-1.2467049365981346,-1.3160013688331367,0.5700385685464326
373,72.711,0.009751526263070381,0.06286180664423821,-0.0648832754955267,-0.051627077643711536,-0.3213277886325694,-0.06135790870447005,-1.2668741847538152,-1.301061656463316,0.6065377097228815
374,72.7178,0.0091135604605235,0.06038602951177838,-0.06516117699340587,-0.13600992310541676,-0.40684195620873365,-0.020377825965896275,-1.2639068627324366,-1.2636496116763072,0.6225227249156678
375,72.7245,0.007927156045911245,0.057388866789117574,-0.06516111099753583,-0.21814064842014028,-0.4878334833902708,0.020397526225613444,-1.2360940980718818,-1.2016749668533016,0.6186500428309032
376,72.7313,0.006169666560171665,0.05380911464598624,-0.06488452785996149,-0.29876802385633117,-0.5650347940015515,0.0609504554139179,-1.1820541943446474,-1.1137199770727835,0.5975993506123283
377,72.738,0.00391663079303929,0.04979075817979585,-0.06434838559786908,-0.373779966332935,-0.6344745988919908,0.09909201088244071,-1.1012560716379567,-0.9999783773408655,0.5634025150437448
378,72.7448,0.001137382222565131,0.04526514013474899,-0.06355167645759968,-0.44364608380672044,-0.6965895320044649,0.13523420684391174,-0.994144302651946,-0.8629511627428043,0.520561696560558
379,72.7515,-0.0020393355751233246,0.04042515708302621,-0.06253623341701281,-0.5046278856532216,-0.7481815282123607,0.1678831187046308,-0.8620984447967295,-0.7074725683952874,0.4732479977823449
380,72.7583,-0.005648798739907588,0.035196089227051,-0.06129283831280266,-0.5569789275166577,-0.789779605895149,0.19782132370944183,-0.7079958538601336,-0.5401225563628314,0.4246482678296057
381,72.765,-0.009517577937340154,0.0298045926340175,-0.05987928492249709,-0.5978805344043656,-0.8196223621757439,0.2241349122029806,-0.5370200171928905,-0.36826975466087253,0.3763186816781786
382,72.7718,-0.013684346064491528,0.02416678392155241,-0.0582753981076994,-0.6276395029933923,-0.838556670902622,0.24759650391410096,-0.3555006519758975,-0.19960146858417624,0.32733324332487357
383,72.7785,-0.01794656564772205,0.018521923426714878,-0.0565507430731299,-0.6446648502106899,-0.8464763126322165,0.2672258944652344,-0.1627388282948444,-0.041466802241197455,0.27017146699994377
384,72.7853,-0.02234034235395422,0.012773180356274958,-0.054682940178241116,-0.6476224163257931,-0.844330472788163,0.282127898148097,0.07403653069133452,0.1058240869303521,0.17676426127192954
385,72.792,-0.02662234123471291,0.007157129398850707,-0.052774416590785744,-0.6305862047971492,-0.8321026488322566,0.28758063542109236,0.444533651502471,0.2663821917946275,-0.010786810454421897
386,72.7988,-0.030740912194329145,0.0015851900095700828,-0.0508589582057515,-0.5807581950902703,-0.8067030538977332,0.2757894778244088,1.0498907413957128,0.4953936540233654,-0.3428495004608408
387,72.8055,-0.034309806006850914,-0.003673487047622578,-0.049136401424979985,-0.48458324148418064,-0.7630512915340731,0.23840657613761798,1.8776065563536064,0.8333349969413173,-0.795059482769272
388,72.8123,-0.03708214831310589,-0.008627406185351193,-0.047748203063930336,-0.33081155447336164,-0.6939837489746942,0.1698870594653173,2.7342605713504344,1.238114795363352,-1.2599541071181783
389,72.819,-0.03863028336380998,-0.012965455615815625,-0.046925630587569746,-0.13131831140781747,-0.6009563795203623,0.07565696332854942,3.338172095312284,1.5935722757751205,-1.6083431102250552
390,72.8258,-0.03875021143405121,-0.016667982991713258,-0.04679130482310829,0.096045349572151,-0.4880222604497916,-0.03614938554575796,3.480840003021447,1.79350867171513,-1.7449141445109813
391,72.8325,-0.037380877364936185,-0.019541972928116103,-0.04740497070424836,0.31271108896995126,-0.36988518325318454,-0.14703445957081718,3.11431125849948,1.8025000736966441,-1.6303487737186984
392,72.8393,-0.03463629294712871,-0.02166539380534336,-0.04873518190925282,0.4945196221500887,-0.25465036887262915,-0.2442041301364716,2.338427239781885,1.65358252993226,-1.2839302993855917
393,72.846,-0.030918371364973714,-0.023033974962256804,-0.05059748503457625,0.6153077158050932,-0.15388131975768568,-0.31170725055632054,1.338276564234068,1.413755773015056,-0.7708167549017613
394,72.8528,-0.026546950921621734,-0.023789776400363366,-0.052825156513034245,0.6704041792987402,-0.06841322086194508,-0.3434902431079533,0.3141574681845149,1.149573819232257,-0.18240773927072174
395,72.8595,-0.02208346043360014,-0.024021730989495366,-0.05510444339542389,0.6619810410071983,-0.0008269549984049607,-0.3368939008894586,-0.5705518168426266,0.9077041233271326,0.38319571260071605
396,72.8663,-0.01778424271856369,-0.023843824948496885,-0.057256569399616666,0.6024947575332389,0.053152261174441384,-0.29608433563798114,-1.2135401745753744,0.7112218147700753,0.8407506206793507
397,72.873,-0.014054401779572378,-0.023347327592345132,-0.05902313884466495,0.5108905973880029,0.09505590484080223,-0.2312498270622721,-1.5748254157587933,0.5642953443158655,1.1327657839479839
398,72.8798,-0.010947672189787499,-0.022585011087586933,-0.06032702011198233,0.4028533996077698,0.12915483185283932,-0.15224466332528425,-1.6653887660421853,0.45838785331159376,1.2367296975697162
399,72.8865,-0.008600387191821284,-0.02162763629409575,-0.0610826295532648,0.2978286893378874,0.1566286885925013,-0.07331039377412807,-1.531488840691778,0.3778968377477183,1.1659734194733742
400,72.8933,-0.006889175637433803,-0.020485059597469425,-0.06133981942503558,0.20546882665855157,0.17942328100355814,-0.002333686158471751,-1.238536141736355,0.30575067548122076,0.9627353893353365
401,72.9,-0.005743092001707288,-0.019224153164143786,-0.061174167630900445,0.1366456914682937,0.19696669909312722,0.051781982915161215,-0.8563912248720269,0.2282585142787544,0.6845071518722927
402,72.9068,-0.004961824371994507,-0.017843290083414575,-0.0607002843949837,0.09313890550610882,0.20916950112144422,0.08759543941332745,-0.448449216898889,0.13772369372235732,0.3895976197150204
403,72.9135,-0.004394343778975331,-0.01642310307264072,-0.06005662260958996,0.07625828644003936,0.21476692000539346,0.10454240697300618,-0.06538484121418828,0.03265776259991403,0.12625603943208927
404,72.9203,-0.003853968444771279,-0.014968465963450452,-0.05933972843518135,0.08267563538471999,0.21306752387420047,0.10630882079428199,0.2578517460150474,-0.08362546222491006,-0.07327836847962832
405,72.927,-0.0032163291480899045,-0.013572686861466288,-0.058656879930368014,0.10766445317662149,0.2035829543294522,0.09752655377658254,0.5027901240004177,-0.20507810009995966,-0.19404760359909062
406,72.9338,-0.0023517448471683244,-0.012248376837697474,-0.05804248777864232,0.14662504709449267,0.18591999383793953,0.08317702026042843,0.6657025020381729,-0.32466328761734614,-0.23631863096255762
407,72.9405,-0.001213155516842872,-0.011086360887488865,-0.05753451322886869,0.19325236494320727,0.16095043906040898,0.06845717370196192,0.753599945067636,-0.435392229920183,-0.21174304629794297
408,72.9473,0.00027475326741094276,-0.010101453087503865,-0.05710875134228423,0.24436786571978475,0.12872832564113149,0.056766910587615765,0.7794384336492607,-0.5310022250815479,-0.1388672722808656
409,72.954,0.0020812355107159564,-0.00936418070244869,-0.05674796044219986,0.29488056511793154,0.09135298333072567,0.05093186555705132,0.7581322689659279,-0.606676656099018,-0.038747355215470396
410,72.9608,0.004252164235843561,-0.008886547359470597,-0.056398231360386006,0.34362788344783013,0.04912741166257118,0.05192962909389196,0.7038804028017736,-0.6597380507303636,0.06867193331055031
411,72.9675,0.006701102510709294,-0.008705904567600719,-0.0560243620219052,0.3873984672588996,0.004795809791163716,0.05967315851240068,0.6284650886516522,-0.6896844321230783,0.16703560381574015
412,72.9743,0.009467896098312922,-0.008830344370728658,-0.05557181356670659,0.42636435262471617,-0.041395751887625606,0.07342932831075351,0.5401862366592934,-0.6956768721899447,0.2455346718272326
413,72.981,0.012432456026346732,-0.009258036884243835,-0.055019631787760356,0.4585789094755833,-0.08627365513192478,0.09140105346436243,0.44040199960198134,-0.6703746365473833,0.3015118808393892
414,72.9878,0.01563650805064852,-0.009988105142759995,-0.054325267274112986,0.4837893329663456,-0.12845230325523266,0.11282380349079536,0.3157002818561399,-0.5946327555949245,0.3409918111762655
415,72.9945,0.0189275929157281,-0.0109626018065173,-0.05349084810781667,0.49862405959336625,-0.1624422232390832,0.13625654465701467,0.13585826311841204,-0.43999627381722517,0.37228419126182855
416,73.0013,0.022318899877594868,-0.012137711317878195,-0.05247714854277395,0.4988191644853353,-0.18317822127891042,0.16189038623797544,-0.13000674483687732,-0.18191059069734675,0.3965170987681646
417,73.008,0.025593387200381634,-0.01336517534220845,-0.051304397038603185,0.4786397378397955,-0.18322895016322818,0.18818468963415458,-0.4842406736428519,0.18036643947928307,0.4038628260695761
418,73.0148,0.028693189180409782,-0.014521535840153947,-0.04993601147664772,0.4330667268745855,-0.15687707864435274,0.2142816521175502,-0.8825692721058777,0.6099697555241007,0.37882822551282574
419,73.0215,0.03136041673246241,-0.015391469845825618,-0.04842433934258215,0.3631206020952499,-0.10280471409310052,0.23696376103572894,-1.2465411002035913,1.0359546267710853,0.3115990642891494
420,73.0283,0.03351876425630742,-0.015817510638887172,-0.04675427874836814,0.27168749315343427,-0.02250140151326875,0.25423053138027424,-1.4956890054131446,1.3724744848026968,0.2062599258903666
421,73.035,0.03500097183624109,-0.01564721315245941,-0.045019409037923466,0.17076253070768982,0.07333647208875824,0.2636410239767288,-1.5763951886223868,1.5447623369700978,0.08018878672815757
422,73.0418,0.03581604902677336,-0.014801965759964432,-0.04322232032912069,0.068966054743034,0.1752657021745303,0.2649144786124497,-1.4766494280012168,1.5122637952312092,-0.04199577677119181
423,73.0485,0.0359809008564336,-0.013320381579235515,-0.04146702046015517,-0.01975655335198387,0.26699823237080444,0.2590556315257868,-1.2240037640003216,1.280009288306072,-0.1363433684115062
424,73.0553,0.03560901956215847,-0.011258251064924809,-0.0397421173213463,-0.08962029790543301,0.3395107424266078,0.24826882106518025,-0.8713254424854923,0.8947607748599724,-0.18717091138270206
425,73.062,0.034859800882349204,-0.00883774506301014,-0.038120333762506564,-0.13402706920197643,0.3830283626230815,0.23584567411121737,-0.4803851442942606,0.42988468378458833,-0.19098086071200449
426,73.0688,0.03388156097031357,-0.0061882577669476226,-0.036555832539987225,-0.15369055198504417,0.3962326068072583,0.22430174427693478,-0.10935521445607342,-0.033867569822003785,-0.15524068086153706
427,73.0755,0.03286129507472646,-0.003584066629186154,-0.03508045825686291,-0.150866431771882,0.38113788207568833,0.21610848949090958,0.19531942844879455,-0.4256051328406697,-0.09415617711927982
428,73.0823,0.03190333258388894,-0.0011194984901802887,-0.033624348759369066,-0.13088724200392732,0.34373509998503476,0.21215900977208865,0.40388950474388247,-0.6961661409337165,-0.024295249413372383
429,73.089,0.031126472875471767,0.0010162683459891968,-0.03220128574584681,-0.10101117841927976,0.2938072391705072,0.21263591963785355,0.5055166569649873,-0.8236024904667849,0.0388120470924753
430,73.0958,0.03055439377567538,0.002828685553623763,-0.030741530300694483,-0.06724738034440396,0.23925664542802294,0.21670391717175794,0.507115469760663,-0.8124600056154783,0.08319392466274605
431,73.1025,0.030206840138900366,0.0042665779306962,-0.029269210550240093,-0.036499973916651135,0.1899649596676341,0.22279451579909462,0.4288137493843522,-0.6879439088565323,0.10219957286047048
432,73.1093,0.030041008536426383,0.005425080626778806,-0.02773182011289287,-0.012274026811002644,0.15077112741556714,0.22937914224431535,0.2977624576268662,-0.4875439204428652,0.09528426074530622
433,73.116,0.030007225140762567,0.0063537230768861705,-0.026177070491656577,0.0021894310904533223,0.1264355741092245,0.23472522230417536,0.1424949309656497,-0.2532130424910027,0.06744662023741924
434,73.1228,0.03003702124504575,0.007181895249562042,-0.02457018203095724,0.006574128992838567,0.11714447667785512,0.23788903084280205,-0.010990591551719586,-0.025442330659798434,0.027441228633063603
435,73.1295,0.030064286825121963,0.007981767470623652,-0.022974891384005897,0.0015648501343952115,0.12162335050489173,0.23831713242660738,-0.14148830000905765,0.16177606968413025,-0.014410120399984556
436,73.1363,0.030032370532881162,0.008859569050058838,-0.02136143667841753,-0.010951994911083895,0.13655358462262684,0.2362283692161524,-0.2339125772904688,0.28600633600359227,-0.04823534168145148
437,73.143,0.02990237335647877,0.009843370691233169,-0.01979130325456372,-0.02785313237324059,0.15711854707142012,0.23246817521816818,-0.2805460462302049,0.33997651857349126,-0.0662222936525677
438,73.1498,0.029649120377561913,0.010987900547939423,-0.0182251690317781,-0.04663303789644044,0.179507881371677,0.22815953736594877,-0.2826943696581845,0.3315166338900463,-0.06300087910506717
439,73.1565,0.029277939382389852,0.012257931973840959,-0.01670727538461859,-0.06416725916992835,0.19960597710667383,0.22494304387603137,-0.2510348755517065,0.28025512942260933,-0.03490689882356408
440,73.1633,0.028790378765343506,0.013671216531224967,-0.0151794421347209,-0.07923292231402554,0.216065951534913,0.22441967668128213,-0.20080927054451464,0.21340671733170158,0.01921025135810546
441,73.17,0.028221717538369814,0.015160069957978627,-0.013663287860244056,-0.09051669767824724,0.22836790719785163,0.2281636888345289,-0.14266083938104676,0.16105607791735604,0.09475482011219134
442,73.1768,0.0275814400540281,0.016748192016238173,-0.012080723854441129,-0.0978002094811253,0.23872681581977404,0.23729631287232675,-0.07578372158403117,0.14962471827481025,0.1791476739577103
443,73.1835,0.0269192845843035,0.018385547155678833,-0.01044329601522887,-0.09985813969054358,0.25003591237182976,0.2514881167436346,0.013141787263958463,0.19461615062884832,0.2528407588478497
444,73.1903,0.026258060402721058,0.020141464871579112,-0.008671174681920303,-0.09461956077492688,0.26641047465778855,0.26972404011195156,0.14397185547780525,0.2964840447656559,0.294084732837456
445,73.197,0.025676109006047932,0.02200760676027402,-0.0067999747216689645,-0.07909727405263199,0.2906468055488768,0.28884311220110953,0.328515530587695,0.4412526583002042,0.2878862458604913
446,73.2038,0.025238469298223005,0.024102510977048894,-0.004776681429967417,-0.04962028707237751,0.3255014935027049,0.30624315006419467,0.5555480439273648,0.6040970594884308,0.2339696575342744
447,73.2105,0.025054018908672853,0.0264329074866184,-0.002683017466202529,-0.005439530703828341,0.3701392556230354,0.3187311674780253,0.7892828089284794,0.7546447239499784,0.14615672529686727
448,73.2173,0.025217907018676388,0.029133301989414953,-0.0004940325254605177,0.05364191599899746,0.4240944216702593,0.3250879327403683,0.9826674583973247,0.8635599111171887,0.044493174706296504
449,73.224,0.02580586579846781,0.03216974915109726,0.001683232112930142,0.12186816752058718,0.4823077161441018,0.324841810061916,1.0940911931602577,0.9084114377112783,-0.051984974276416636
450,73.2308,0.026883000669711853,0.035651755906322836,0.0038717689183498417,0.1949362063747957,0.5418119177460204,0.31884548564991544,1.0973400971384346,0.8762179479886714,-0.12785470869987028
451,73.2375,0.028418034577331983,0.03946219827897752,0.0059751146062722,0.263282870527075,0.5956335666293534,0.3090188988049845,0.9830838294015107,0.7620748274017956,-0.17125961739025308
452,73.2443,0.030405528204936555,0.043663084727839994,0.008037250735374354,0.32127407876852837,0.6399212712716722,0.2974917274016774,0.7561683839515329,0.5661866566970621,-0.1744593111312352
453,73.251,0.03268888697597537,0.04804508625445222,0.00999634282514575,0.360325554376445,0.6681388859241992,0.2873118814844989,0.4325308046469642,0.2927374971150476,-0.13540797028218998
454,73.2578,0.035192196801958335,0.052616153383387286,0.011928110631057788,0.375942041501075,0.6762926225864394,0.2808551202544727,0.03583346331627609,-0.04819345385502174,-0.058240974117415995
455,73.2645,0.037670271253269855,0.05709376532616411,0.013808739703235186,0.36378167530888134,0.6603079573479282,0.2805266923362104,-0.4059863756129255,-0.43836840592845766,0.04824386148915098
456,73.2713,0.04000020781901329,0.061437520731377,0.01574134617995569,0.3214937852040582,0.6172671618326422,0.2878869772876042,-0.8622973641672929,-0.8524962119072897,0.17250325313071707
457,73.278,0.04191620675249386,0.06534043467519735,0.01772234880086931,0.25044619493860676,0.5477817766195839,0.3034570886559437,-1.3003408354325166,-1.2625895751576184,0.30143988120199344
458,73.2848,0.04328046695801194,0.06873607501461329,0.01986782840818066,0.150806806684452,0.4509359702676974,0.3275663252593105,-1.6880091543906781,-1.6419762747236561,0.42163598488565274
459,73.2915,0.04388510713534117,0.07136016592509464,0.022166280442616836,0.029682798488586848,0.33237474927955346,0.3585387596475181,-1.9989196497372788,-1.9669431065348166,0.52114292559416
460,73.2983,0.04360906641279157,0.07314598061045548,0.024730422130676874,-0.11087124629731296,0.19286486406199424,0.3956205603703221,-2.2165285346110264,-2.217189006026042,0.5910015862725773
461,73.305,0.04236533178506439,0.07393260497878569,0.027514968262817345,-0.260392821680436,0.041948380215358405,0.43558724026747636,-2.3348020507012563,-2.376601602446305,0.625555771039988
462,73.3118,0.04006291365597065,0.07367245458829237,0.030618348170365635,-0.4167889809943549,-0.1184632009487063,0.4771715560704751,-2.3557773404728777,-2.4344069288025483,0.6216266121930204
463,73.3185,0.03675965161250893,0.07234820474195032,0.03394737677927702,-0.569259390188978,-0.2768352606462277,0.5165683271873892,-2.2853136522211868,-2.3863261146717916,0.5775831265212359
464,73.3253,0.032389707261250136,0.06994183518659383,0.03758031547063802,-0.7160183601815653,-0.43092049092937934,0.5519430526249267,-2.116230497820538,-2.2349446941577735,0.48336337519371725
465,73.332,0.027162390554928372,0.06659081926013724,0.041363964327912714,-0.8443746864828021,-0.5693827707001945,0.5775043674579073,-1.7908449340526937,-1.97974878549269,0.2947048982463674
466,73.3388,0.02108180801846509,0.062313776800454496,0.045317348430481436,-0.944031941885444,-0.6885708939100504,0.5852556627072147,-1.1980409210875502,-1.594900086015436,-0.062230738326281725
467,73.3455,0.014595274462583109,0.05741061454778693,0.04916356551927091,-0.9922467315135952,-0.7750596292753804,0.5628688414098958,-0.26958303978356035,-1.0377556062845574,-0.619208205970214
468,73.3523,0.007919231074918926,0.05198700340098899,0.05277275601618328,-0.9712954413292841,-0.8201201197832223,0.4986577753292915,0.8979468716586332,-0.31368300358589796,-1.306587827412288
469,73.359,0.0017354922480899253,0.04651002713979331,0.05575173830242017,-0.8745967457852158,-0.8147981671420693,0.3905906683241689,2.0454927587943814,0.4756794630751055,-1.9828981756571369
470,73.3658,-0.003652421904204702,0.041156113520263986,0.057898891801122725,-0.7100838872429971,-0.7598823091904643,0.24092506658850069,2.888519861761069,1.1713379105383666,-2.505820665960368
471,73.3725,-0.007734037927837241,0.036374541491765555,0.05893163283105348,-0.5083089556307051,-0.6674526246876937,0.06735583786801494,3.2533657841279675,1.642156055066997,-2.7775034116548305
472,73.3793,-0.010468070396820172,0.03223023653071107,0.05876210965702356,-0.29581824112917404,-0.5514605991521541,-0.11721559493565004,3.119582059534608,1.8366365630144195,-2.7580990143013087
473,73.386,-0.011822021315298534,0.028933429437793524,0.05740205477772325,-0.10834621214824788,-0.4326609211224674,-0.28877093619907185,2.5869333861925523,1.7795412812697267,-2.4639237591136776
474,73.3928,-0.012059542822787114,0.026367783713406662,0.054937323992399346,0.03848694523982524,-0.3219407625209087,-0.43614988301401436,1.8168357664955082,1.5411393313633388,-1.9562145208523485
475,73.3995,-0.011494116496871504,0.02451315702767487,0.05165443252306064,0.13029703264519815,-0.231679143666921,-0.5438177197723056,0.9777981034164372,1.2063602553506423,-1.3211179794025454
476,73.4063,-0.010473613083450425,0.02317117530478632,0.04773311341200006,0.16985103012577982,-0.16302136306510043,-0.6095114305399055,0.2084916765555321,0.852800098378028,-0.6491450194333507
477,73.413,-0.009356562565095901,0.02223199448850585,0.04357550348217498,0.16359688580119044,-0.11733111940688906,-0.6315661604535737,-0.3988633889762005,0.5379784757480787,-0.022185298949736292
478,73.4198,-0.008380031541897308,0.021528577755877135,0.03933436163761706,0.1236181210219946,-0.08955615489572301,-0.6158284997108203,-0.8001658645587049,0.29503863092631605,0.49418376405961323
479,73.4265,-0.0077491076107927175,0.020975913437307182,0.035357043398946894,0.06471738080001097,-0.07541826855776607,-0.5714306760099788,-0.9927308447151736,0.13530859044783122,0.8572544642574397
480,73.4333,-0.007535408148400345,0.02048458397728455,0.03168767208992349,-0.00186459774341588,-0.0690903961548083,-0.5077961795853999,-1.004172773311216,0.054474764933145015,1.0512492918850513
481,73.44,-0.007755249161135546,0.0200318819635752,0.02852074190861977,-0.06375958516266277,-0.06604453331076925,-0.43755611334178435,-0.8798666945549825,0.03823913729300404,1.08680844988544
482,73.4468,-0.008364655814780395,0.01959459341422635,0.025781478337362336,-0.1154776659093944,-0.06256974590951171,-0.36810964291059545,-0.6712440537260935,0.06597548181624907,0.9960060157849324
483,73.4535,-0.009259142017571846,0.019195211230064884,0.023515402189703563,-0.1515331408936555,-0.056648816526582095,-0.30833099818064164,-0.42625900322973803,0.11425340438262828,0.8236134833463299
484,73.4603,-0.010358677382303068,0.018841231504417258,0.021582053887522698,-0.17185961343913433,-0.0474628674874509,-0.2603008554021023,-0.18336551463145304,0.16124839464070578,0.6168899079164089
485,73.467,-0.011526946102380815,0.018561950432058077,0.01995182942205541,-0.1768773179276154,-0.035904616798933114,-0.22633331339446294,0.03063015287503305,0.19057654926238682,0.4170579517917801
486,73.4738,-0.012703550512972797,0.018361302348030864,0.018488832172971478,-0.16918280283481568,-0.02310952556202635,-0.20395999515973762,0.20014107627594113,0.19316939134963618,0.2539548523867383
487,73.4805,-0.01377989011992669,0.018246122418447953,0.017166080754158763,-0.15211260222560388,-0.011272542970138707,-0.1908911746345568,0.3194637093949527,0.16713995377480143,0.1438507647478053
488,73.4873,-0.014733692814619084,0.018201599433332077,0.015894528408477025,-0.12841760209575587,-0.0018224526521813285,-0.18309480938957456,0.391188519985222,0.11628387891135167,0.0899751188583099
489,73.494,-0.01550437942097729,0.018207471377566974,0.01468705579976343,-0.10163810129492386,0.0035752718267785463,-0.1773447753013173,0.4239604693307188,0.048019021518119875,0.08505183591709403
490,73.5008,-0.016098772371016905,0.01823397473232509,0.013503795396771778,-0.07318335459912298,0.004219832513845787,-0.17067299028454677,0.4294444289603187,-0.028687580846037033,0.11504602735072222
491,73.5075,-0.01649568171514465,0.018247503932516354,0.012390911510385636,-0.0452970466331271,-0.0001812652925702908,-0.16153115490559203,0.41939498456334084,-0.10527871133627312,0.16322495032994253
492,73.5143,-0.016710367761792612,0.018214469907086372,0.011335224474470416,-0.01784590826321568,-0.009534624539759428,-0.14896503212772186,0.4039100407439361,-0.17524399660926093,0.213653847635992
493,73.521,-0.016742455366958443,0.01810545703902995,0.010388595516683337,0.008267518661468434,-0.02300653010397241,-0.13361077616713726,0.39096413273470426,-0.23483124289956614,0.2537188013560288
494,73.5278,-0.016598120746587734,0.017890352903138878,0.009540059337637866,0.034183840271103,-0.040259392216946716,-0.11595868825806137,0.38630920038591254,-0.2826106164203388,0.2756964996381088
495,73.5345,-0.01628332402583296,0.017554441075389508,0.008823990905261425,0.05978533010352624,-0.06001279517099877,-0.0977930826007358,0.39298197151053155,-0.3186689433930309,0.27725163789479135
496,73.5413,-0.015785667555785487,0.017071204691276435,0.008219978293570306,0.08658421991016547,-0.08211555309728955,-0.07985768554338243,0.41076104100677535,-0.3442293098105998,0.2606605728565626
497,73.548,-0.015112318611255653,0.01644336448028724,0.007739058608939702,0.11441546502426175,-0.10529943525783315,-0.0637004292718297,0.4364022984030077,-0.3614716012011486,0.23115483542265608
498,73.5548,-0.01423213789025183,0.01564406481419164,0.007354239028278287,0.14446121762398428,-0.12978870182916438,-0.049481800334495854,0.4647194973931151,-0.3730019919379945,0.19528535439263658
499,73.5615,-0.01315919202962404,0.014691489557359999,0.00706177861148788,0.17582112883230963,-0.15456212110586437,-0.037819816617929033,0.48985393235916197,-0.38108330022229225,0.15969714922755998
500,73.5683,-0.011850679357239121,0.013553379689124118,0.006837444023485097,0.20903553951628828,-0.18017607543418132,-0.028160944559375838,0.5063011581987349,-0.38712153822086287,0.12998839304269186
501,73.575,-0.010338332998112586,0.01226049170859361,0.006675127126318142,0.24241113484921809,-0.2057606351714077,-0.020291860565021573,0.5096282650469959,-0.39165429359752585,0.10954093622050448
502,73.5818,-0.008575827651339166,0.010772164989510447,0.006560757174119011,0.2759727906725009,-0.23198251750021595,-0.013346360670025058,0.49694128134697024,-0.3947833106816404,0.09876608878438228
503,73.5885,-0.006620684020059788,0.009130764234435054,0.006492693941229435,0.3076521738889393,-0.25798785714951755,-0.006971022282102515,0.46735664948786443,-0.39680076288284444,0.0952946848690504
504,73.5953,-0.004427769483223568,0.007286279220132142,0.00646689651186305,0.33732268988657493,-0.284507735292646,-0.0006164569433065141,0.42251118022441053,-0.3985742285510849,0.09528923578975618
505,73.602,-0.002080854859563209,0.005292049149494801,0.0064837484842531585,0.3632488395633108,-0.3107848231057382,0.005646896462735075,0.3666624068031566,-0.40128166615989447,0.09536279453091
506,73.6088,0.00046550978549774304,0.003087265355265719,0.0065436264560904435,0.3856819383959729,-0.3376809987265009,0.011964271724705818,0.3061433163441187,-0.40537910876951905,0.09410573423670189
507,73.6155,0.003110593912646943,0.0007353015334114785,0.006644429006247184,0.40389541299243215,-0.364397754066329,0.018126041754940307,0.24826191770617564,-0.40785995326652535,0.09345417025512663
508,73.6223,0.005907420750040428,-0.001833821433059013,0.006789858572526405,0.4187007156529087,-0.39122664783693856,0.024647360091899807,0.19577358702726008,-0.396782927738171,0.10213094851515167
509,73.629,0.008748963408137796,-0.004536923462196375,0.006981474290126271,0.42952097333020883,-0.4156694802626521,0.032551361579622864,0.13358737363323697,-0.34723953541312125,0.13846124445266142
510,73.6358,0.011687486477612148,-0.007428363229956439,0.007243622768067635,0.4347505176918673,-0.43475398084345385,0.04455113193256162,0.023255307898283655,-0.22513618984672912,0.22143170792694056
511,73.6425,0.014583520055223356,-0.010365894035679443,0.00760495271033216,0.42973711741659576,-0.4421208865371963,0.06330855232558551,-0.17585965246085522,0.000892811476755951,0.3495308499364454
512,73.6493,0.017432163024505908,-0.013333500732924879,0.008130508652764512,0.4080990500196504,-0.43070461265284826,0.09126672486043755,-0.4731017634856037,0.341500117101744,0.48898096827031085
513,73.656,0.020022906269944147,-0.01609713720066474,0.008860480703364268,0.3652571426474126,-0.39426149711910474,0.12663537979590486,-0.830975476583327,0.7678024429321281,0.5876157740839585
514,73.6628,0.02227903476693103,-0.01855429284722273,0.009856528551142555,0.2983100623488892,-0.3284313401040079,0.1663198695507208,-1.1768781467094973,1.2065528044559048,0.6025876849381608
515,73.6695,0.023990569486718707,-0.02045019484078188,0.011094405990244229,0.21259582415527345,-0.2375095534961577,0.20319578391273846,-1.4322024016232373,1.5610418199325384,0.519888964117447
516,73.6763,0.025098974849766368,-0.021689960274291174,0.012575567114299281,0.11340575321176441,-0.12712733871254633,0.23243984080944072,-1.5426718191870992,1.7495032988700367,0.35718865208324346
517,73.683,0.025524520199679837,-0.02215801766507135,0.014189173503319817,0.013622709448796885,-0.012591285400746333,0.24923370815124807,-1.4946531809694261,1.7368928364250529,0.15400474514116955
518,73.6898,0.025298877896814325,-0.02187187733876429,0.015896479677184244,-0.07998809264455217,0.0967502049028437,0.2529151665148804,-1.3128895426917266,1.5424392345680804,-0.04359172217646375
519,73.6965,0.024503176223763603,-0.02091901529550224,0.017564572481916414,-0.15753479483345117,0.18768622592185877,0.2450229841518076,-1.0475770091008056,1.2255886751889329,-0.1966407050297967
520,73.7033,0.023227203094296427,-0.019406153106840636,0.01917655369035242,-0.21775141971580905,0.25727324133166163,0.2290891359765439,-0.7584191286452312,0.8614409667563014,-0.2812417455422347
521,73.71,0.0216300901435277,-0.017530895374134207,0.02064844967524176,-0.2589987148423719,0.3025051863423128,0.21028279981164424,-0.4971192469390295,0.5153873219577657,-0.2912097736839003
522,73.7168,0.019779441791685413,-0.015389643327968352,0.02201848013204951,-0.28530962393376547,0.3272748272347158,0.1926673345428312,-0.2919884171384041,0.22749516061804811,-0.23710715377860134
523,73.7235,0.017820019446642413,-0.013170617395183229,0.023267659227991566,-0.29959256861681616,0.3351209735971539,0.1802219478282078,-0.14277427726113157,0.011335963417232132,-0.14172158083903982
524,73.7303,0.015763357076983325,-0.010906326782575453,0.024473400128366282,-0.30530812834188475,0.3308468536405873,0.1744077287526766,-0.028644808559384526,-0.13952388741501287,-0.03265646201761152
525,73.737,0.013723291428991747,-0.00873193522215616,0.025645408457234634,-0.30366669195455936,0.3182252539477416,0.1754455037455973,0.07860896667069413,-0.24466864513786912,0.06424559591925601
526,73.7438,0.011690478145203537,-0.006633147237023105,0.026860255338154004,-0.2942195679832932,0.2990653299150699,0.18186240240724463,0.20472590037386043,-0.32996915414288086,0.12820780414897112
527,73.7505,0.009782042784070497,-0.004712004105127131,0.02810885468145779,-0.27546262936906624,0.2744102318441304,0.19085381947396685,0.36622199248382786,-0.42051452452766136,0.14548454691283227
528,73.7573,0.008014509894721961,-0.002954378783484427,0.029435771578043876,-0.2443999851453344,0.2425383921685539,0.19941585599262376,0.56539806436653,-0.5353746417848785,0.11130508409262867
529,73.764,0.006526167111011854,-0.0014636596724408966,0.030787435469964094,-0.19988144282816056,0.2024523872477546,0.20406590278982978,0.7897147529170443,-0.6848148845220562,0.03023903860052231
530,73.7708,0.005371703796082532,-0.0002631285301205478,0.032168792663829784,-0.13966659097466294,0.15064500755243299,0.20221562481782326,1.0162282087620842,-0.8689740868672289,-0.08573193408791692
531,73.7775,0.004681869371623684,0.0005319741586865727,0.033489974003939875,-0.06625413274411168,0.08669907865831995,0.19216686476673417,1.2183948924962642,-1.0774945831975697,-0.2201451866406297
532,73.7843,0.0045250392697660435,0.0008530380115739427,0.034731531515919914,0.02012763219773564,0.0077314663085763236,0.17299710934512919,1.3723370550587752,-1.290874670132108,-0.35478747224868973
533,73.791,0.004971726287515003,0.0005993862510842709,0.035799628844654256,0.1132117760856347,-0.08344840973838513,0.14583791415789527,1.4610781895302165,-1.4845760135238095,-0.4719191445834007
534,73.7978,0.006074592362126586,-0.00032169052303445463,0.03667477735100342,0.21116059880020288,-0.18745652382601113,0.11155870535662596,1.476568944710078,-1.6347992869595969,-0.5561710019671414
535,73.8045,0.007808147704162105,-0.001947156597304271,0.037295393603726315,0.3063186077768494,-0.2977572296866967,0.07369987754547404,1.4199732806048968,-1.7226758792760843,-0.5962248345498133
536,73.8113,0.010199331726997477,-0.004363476639691545,0.037662892063098335,0.39697081070431145,-0.41292513572149625,0.034387904622792786,1.2988361625515898,-1.7314000324425023,-0.5828062287859819
537,73.818,0.01312494326286922,-0.007500540574554819,0.03777423391266342,0.47634606567595905,-0.5235118597607707,-0.0011515316182651517,1.1172902375650033,-1.6347813240663827,-0.49898897524771824
538,73.8248,0.01658853121843417,-0.01140332286603806,0.03767390558578766,0.5423562741963305,-0.6243652847933999,-0.028356799815789514,0.8624650521494878,-1.389979635938051,-0.31694199708860793
539,73.8315,0.020372287391962375,-0.015843887513510492,0.037446550715964436,0.5871231805866484,-0.7011764010174353,-0.03951032550448377,0.5002077911642233,-0.9480962013894919,-0.022563405198306796
540,73.8383,0.024420871870739068,-0.020751660412820415,0.03721482554674793,0.6036369602303128,-0.7422862164270068,-0.028644136029798428,-0.004932237040884579,-0.28485513054227424,0.34845839286387836
541,73.845,0.028393826686986555,-0.025694831544646794,0.037138852733096236,0.5823197013369791,-0.733287255761064,0.005965684193453849,-0.6439499871321426,0.5587771034085196,0.7050399596712812
542,73.8518,0.032129723604443876,-0.030452547991828477,0.037365621692489824,0.5164735096801449,-0.6660411110574145,0.06073106856938155,-1.330886165672031,1.4580459558440613,0.9374644626262199
543,73.8585,0.03523148670630339,-0.03450850865644271,0.03798249214513996,0.4094259237094766,-0.5446934156914305,0.12340936505727002,-1.927566341023143,2.2356917269030894,0.9704183770886795
544,73.8653,0.03753574803986193,-0.037649576837749825,0.03902197049887403,0.26829799792555054,-0.3791501670461773,0.18231956251164594,-2.305093483266559,2.729223996409904,0.7963958421458105
545,73.872,0.03881655044514272,-0.039575835909319235,0.0403831999052621,0.11403107827795483,-0.19585254088541565,0.22401757372390052,-2.3906820119851737,2.850225591549326,0.4728620110512907
546,73.8788,0.03907362762257657,-0.04028953995422124,0.04197066397158253,-0.038420143738566975,-0.014060413497578694,0.24288362225280644,-2.181582187384897,2.602020869896876,0.09296197600042672
547,73.8855,0.03838516758947457,-0.03987060977907742,0.04358053323815717,-0.16709031390397433,0.13911419712269263,0.23767436776983056,-1.7350464288656064,2.0605055141684194,-0.25152798357721473
548,73.8923,0.03692233310829679,-0.03853872960969362,0.04511166508992287,-0.26315512173575434,0.25261526446005267,0.2126585298074827,-1.1460959841489233,1.3435791491842752,-0.49873835616948153
549,73.899,0.034975662876749046,-0.03663418898896346,0.046412632215596134,-0.31794046977146484,0.31590432381802863,0.17568986591616784,-0.5215311091553699,0.5828948786216438,-0.6265615227001711
550,73.9058,0.032759475183117615,-0.03443139661924563,0.04746323990883652,-0.3338794401202888,0.33197578492266444,0.13331239680166712,0.04349503612965814,-0.10088518877913717,-0.6444088396833058
551,73.9125,0.030580291976656182,-0.032286329743068984,0.048221989661396604,-0.31662300957017236,0.308342685578301,0.09318006664927236,0.4817784567089804,-0.6184895743367813,-0.577190793779685
552,73.9193,0.028568074081235583,-0.03036448624126442,0.048738847146359884,-0.27520578319949796,0.2569054031867012,0.058836840692588,0.7603926381932428,-0.92419956702032,-0.45281933310063005
553,73.926,0.02690447930017721,-0.02885684399480629,0.04905052889953619,-0.22138967383321934,0.1931370584429248,0.03420248861384066,0.8777315182314809,-1.0168635676078213,-0.2970328523000797
554,73.9328,0.025595543868261503,-0.02776435604911466,0.04923438907191672,-0.1635913355538465,0.12818292558410216,0.01987403267456292,0.8557362060824449,-0.9312182669827607,-0.1327012308830063
555,73.9395,0.024674118763943285,-0.027087649234778736,0.049355121640409956,-0.11146093439209384,0.07381910854617368,0.016165540010013017,0.731076189551046,-0.7235777220614904,0.01981734742766153
556,73.9463,0.024060993688749772,-0.02671942190875846,0.04948352444711151,-0.06886997007663023,0.03448304616569813,0.021599991372804807,0.5462972468858097,-0.4561758239412077,0.1431708338452831
557,73.953,0.023697282594124187,-0.02655885959735325,0.04966878811664409,-0.03970050593085689,0.013446002014895118,0.03370259654729246,0.3416005296300818,-0.18417686243720122,0.22522387408542105
558,73.9598,0.023482939791965272,-0.02648243905028652,0.04995314911861066,-0.023341494704133256,0.009030629475324847,0.049932992266423656,0.14903326378703738,0.05175253993901237,0.2615525276160387
559,73.9665,0.023341879588409137,-0.026391248042822144,0.050344605105000946,-0.018766028745490687,0.018190566782718097,0.0669195409844947,-0.0097593288628619,0.2270694475898592,0.2555059538875225
560,73.9733,0.023199208283614117,-0.026204225054350723,0.05085306495240731,-0.02319611972364279,0.03681619453241886,0.08262747295859017,-0.12310642394272736,0.3315439228003187,0.21560089629904836
561,73.98,0.02300957110877136,-0.025880719139449282,0.05144717528163092,-0.03341199216963947,0.05975273528877395,0.09471889397358435,-0.18785747942691192,0.3666280914937712,0.15245337375810322
562,73.9868,0.022737533036457817,-0.025393979183681192,0.05211725512704746,-0.046599205569656646,0.08340607523128737,0.10236341350191601,-0.20764885316133935,0.3427746799904981,0.076818405755663
563,73.9935,0.02238145834011396,-0.02476703293675114,0.05281139904114879,-0.05969174856291623,0.10374205818080695,0.10484372503594845,-0.19087885905798158,0.2762382012179545,-0.0013194838305612875
564,74.0003,0.0219370818404098,-0.02400924609716213,0.05351588005330347,-0.0710072219383385,0.11913642405130821,0.1023565726566551,-0.1484908956020464,0.18546428309581023,-0.07327432809039977
565,74.007,0.021434869279200127,-0.02318094050408584,0.054179052034332764,-0.0789069754374768,0.12811897686664592,0.09560521272495077,-0.09197199160957482,0.08795824644800253,-0.1322322743573299
566,74.0138,0.02088425732978127,-0.02229996159079136,0.054794464180984,-0.08303771556810823,0.13099246822002775,0.08539835981957418,-0.031915734355262106,-0.0017774899510601115,-0.1738881194984315
567,74.0205,0.020326911452813644,-0.02143058142881503,0.05532582604448934,-0.08333418800444149,0.12852399804175518,0.07321712182392767,0.022891323906595745,-0.07336098951278766,-0.19690011567508162
568,74.0273,0.019770327907111706,-0.02057865229867073,0.0557783829479912,-0.08036685484910953,0.12204339317721648,0.0598878497943001,0.06610390338163001,-0.12100306490707517,-0.20286679008396918
569,74.034,0.01924951632822861,-0.019790062883404867,0.05613576978851017,-0.07509928810085366,0.11335643227495472,0.04679478916643856,0.09423708814471408,-0.14342185669081897,-0.19567667856423798
570,74.0408,0.01876162445427956,-0.019051731666375527,0.05641134272834904,-0.06839832188419555,0.1037998080278446,0.03425607549207208,0.10673596755367691,-0.14319710466560845,-0.18038007507230994
571,74.0475,0.0183267241591583,-0.018385862718566254,0.056603179486172384,-0.06142266173418656,0.09496704206462224,0.023008628335835658,0.10559817427299403,-0.12566601945809613,-0.16198422999739934
572,74.0543,0.017931746975131578,-0.017765394669303165,0.05672489164982867,-0.054747098273701215,0.08752356065985996,0.012789066857197471,0.09461301076881755,-0.09757629434889348,-0.14451731498185236
573,74.061,0.01758398553476831,-0.017196962359641486,0.056780309561175676,-0.04906228690922026,0.08215772580607858,0.0037535932463629313,0.07842861060653782,-0.06575590853335632,-0.13051608599992318
574,74.0678,0.017266246687101864,-0.016649830421318592,0.05677732532590821,-0.04439031534563916,0.07876343252422337,-0.004631309501502168,0.061691540862774785,-0.03604455885225107,-0.12096101036017341
575,74.0745,0.016980936598949344,-0.016127469620488166,0.0567202692393856,-0.040776875147714005,0.07716516473870523,-0.012400358117199427,0.04829901300149936,-0.012605577672357399,-0.11552331300836645
576,74.0813,0.01671374430931474,-0.015603903855171384,0.05661004769780908,-0.03780909239189473,0.0768247662368563,-0.02001774234649051,0.04070969854867593,0.0023964638132741465,-0.1129346340237621
577,74.088,0.016469249616050688,-0.015087948639016403,0.056451238708250265,-0.0351743981347417,0.0771917161975802,-0.027387926178562564,0.039488523847167833,0.008773232434548278,-0.11140852854928955
578,74.0948,0.01623945053325297,-0.014561146583153122,0.05624000190896034,-0.03241356739387446,0.07775006493839239,-0.03474054420071236,0.04331335461592002,0.007972569433126754,-0.10910864218618077
579,74.1015,0.016032491017113102,-0.014039068001334351,0.055983720996085846,-0.02936539264792195,0.07809428784344528,-0.04176122083650778,0.04947092026288444,0.0025053313776512505,-0.10459576950340811
580,74.1083,0.015844616723175445,-0.013508279919843028,0.05567687428337702,-0.025891752627872702,0.0780198537716874,-0.048487812313168795,0.05470928698694038,-0.004737732253224981,-0.09714583010929863
581,74.115,0.015683342106990003,-0.01298729307999366,0.055331755344266945,-0.022249923845428923,0.07749860588495526,-0.05453276652573569,0.05614539523247268,-0.011128683301450856,-0.08685828383900723
582,74.1218,0.01554428792622474,-0.01246323941187454,0.054942637240218715,-0.0186483646149526,0.0766348259148226,-0.05991373466494752,0.05187132062981857,-0.014777506110021968,-0.0745258471337368
583,74.1285,0.015429582882582648,-0.011953038512217665,0.054526264536620545,-0.015591946919952812,0.07566395010194497,-0.06437662461791738,0.041163863764796575,-0.01477526425350261,-0.06132135411323013
584,74.1353,0.015330986307689011,-0.011441470468978771,0.05407606749914464,-0.013407045695829897,0.07479723908600112,-0.0680342687573803,0.024364936293850357,-0.011218832067813085,-0.04837744089603317
585,74.142,0.015244118455567142,-0.010942123593112365,0.05361090907425166,-0.01252365643012042,0.07426152982945425,-0.07081899240480698,0.002524805694665692,-0.0050877773155782605,-0.03638756960982101
586,74.1488,0.015156637509296798,-0.010437498762981397,0.05312233270321612,-0.013206033649398876,0.07415753785616017,-0.0728799402527384,-0.022990426690701116,0.0019688861041793505,-0.02542366376188926
587,74.1555,0.015060078703006696,-0.009939555032752817,0.052629573910412904,-0.01561749061626334,0.07448238161485235,-0.07421223670324173,-0.050412611100548954,0.007919127251720568,-0.01513049418047834
588,74.1623,0.014939476935538012,-0.009430928577126137,0.05212261690251054,-0.01985361746277008,0.07511363474597221,-0.07489276562101892,-0.07663583671165768,0.011013197815813601,-0.005279693197694795
589,74.169,0.01478732941114467,-0.008925257067802452,0.051620687132971896,-0.02556355399796263,0.07583308445523963,-0.07493701633092593,-0.09717057702013833,0.010886340481582858,0.00393273300879922
590,74.1758,0.014590191696436211,-0.008407349537472401,0.05111293842661678,-0.03241812679865706,0.07649265975951762,-0.07440083847943889,-0.10840939409478288,0.008895413384660423,0.012148127232410988
591,74.1825,0.014349009571991839,-0.007893088491075348,0.05061788767922095,-0.03957653721448927,0.07701810035879388,-0.0733755040265756,-0.1094875360593692,0.007098625362745577,0.019062325463353503
592,74.1893,0.01405594173810597,-0.007367732756795564,0.05012387804994659,-0.046619884516669444,0.07749829207647405,-0.07192144576003512,-0.1017540944603134,0.007303118162439998,0.0245472859780071
593,74.196,0.01372272890853066,-0.006846474790796166,0.04964786939412713,-0.052846631774540985,0.07810110075928196,-0.07017069030558076,-0.08778367070303479,0.011045950111695851,0.02874446691357416
594,74.2028,0.013345360199655437,-0.006311899232902095,0.049177557132865195,-0.05814416495349272,0.07912700450371807,-0.0681564453597288,-0.0710981078665796,0.019722599334083993,0.03166606920979603
595,74.2095,0.012941828869437294,-0.0057758045134724085,0.0487279738636845,-0.062312948544294144,0.08090126995268378,-0.06604751558954632,-0.0557967045492619,0.03428478109679361,0.03252825552703769
596,74.2163,0.012506588936794101,-0.005215575190106342,0.04828588730291222,-0.0656987963507933,0.08387206044914,-0.06397794346115465,-0.04575046906731969,0.05481413756785024,0.02954163427439565
597,74.223,0.012056563212524714,-0.004638763551251602,0.04786274010861223,-0.06863724074464558,0.08831051831359638,-0.06233465185236819,-0.043693691808724774,0.08028936825331127,0.020478995460869374
598,74.2298,0.011579144055869703,-0.004016856659307677,0.04744160722602468,-0.0717801582715681,0.09460327343466106,-0.06152796067341069,-0.05056760108116221,0.10844076178348538,0.003715006717055353
599,74.2365,0.011085473678417626,-0.0033561511734440126,0.047027469714845234,-0.07558413350496772,0.10262224473332462,-0.06209517699192579,-0.06522270397133748,0.13565103059384645,-0.02098066869480773
600,74.2433,0.010554539018689513,-0.002625119514396427,0.04659691728097618,-0.08057311935627973,0.11238706675131116,-0.06453789179311917,-0.08440523011400274,0.15721212612930416,-0.052280386789270016
601,74.25,0.00999405020715797,-0.0018363166467015137,0.04614912554442199,-0.08673697363833441,0.12307647584435952,-0.06913128329778287,-0.103218117523288,0.1681658965376561,-0.08753918902756959
602,74.2568,0.009379359630936697,-0.0009616874813430177,0.04565513898885053,-0.09405437230914256,0.13416739631996596,-0.07615888010562402,-0.11624276663694752,0.16446914539844673,-0.12323005812623296
603,74.2635,0.008723328179843007,-2.8826510694093593e-05,0.045114179647233854,-0.10177591159956619,0.14429856506797856,-0.08532152037708501,-0.1187954066047506,0.1439164375499525,-0.1556742057095932
604,74.2703,0.00800558144002605,0.0009807957068014607,0.04449572302235376,-0.10932607069914854,0.15264914595957654,-0.09657748694025299,-0.10764634764209433,0.10653128959505917,-0.1819108412662485
605,74.277,0.007252291465711283,0.00202127181657214,0.04380660351898411,-0.11553660820094816,0.15794073755428883,-0.10912982749859941,-0.08139800405632937,0.05454100119866785,-0.20017349241063923
606,74.2838,0.006452784601156647,0.003100545016066385,0.04301804061002518,-0.11961246960929552,0.15949255641468318,-0.12280043984231989,-0.04084381829496029,-0.00799938791780217,-0.20983077371381134
607,74.2905,0.005648106867431798,0.004159909856018808,0.042148943877717435,-0.12058983896546374,0.15673575401910994,-0.13663142054824334,0.01109338908441493,-0.0759157195074067,-0.21117445814366556
608,74.2973,0.004837292301541044,0.005200813295422789,0.041172640953948896,-0.11788503335490545,0.1494123163932596,-0.1505164982066788,0.07002820309308068,-0.1437262828984272,-0.2052619773486309
609,74.304,0.0040695699494358376,0.006163354377899092,0.04012027604804498,-0.11128581801995249,0.1379133798685359,-0.1636222796753199,0.13084722586181724,-0.20629317997540864,-0.19366870466118663
610,74.3108,0.0033489817965369124,0.007048386005640689,0.03896550664150892,-0.10065187400919412,0.12239004005552602,-0.17601578107066307,0.18808233636384358,-0.2592774461097609,-0.17803289264466762
611,74.3175,0.002721306283886506,0.007806886652102027,0.037749050216964904,-0.08671395066270762,0.10402806336593644,-0.18710553968901344,0.23617815353664517,-0.2996480862099746,-0.1595314853001665
612,74.3243,0.002189127631378178,0.00844336939347974,0.03644290426023568,-0.06980918242801482,0.08317274292167091,-0.19705503581967448,0.27082379486202174,-0.3258374544921644,-0.1388703533880293
613,74.331,0.0017832046278805113,0.00892772360432998,0.03509450536312112,-0.051361863392016815,0.06141060360058955,-0.2054520976468023,0.2906994978829795,-0.336586614008149,-0.11673024620864203
614,74.3378,0.0015004971189698244,0.009269774079020023,0.03367359014536712,-0.03178740393467583,0.03919247719062367,-0.212464142869182,0.29637090414450706,-0.32977173076363786,-0.09357258318537943
