,Time,Position X,Position Y,Position Z,Velocity X,Velocity Y,Velocity Z,Filtered Acc X,Filtered Acc Y,Filtered Axx Z
0,133.333,0.0,0.0,0.0,0.0,0.0,0.0,-0.00028178642348364715,0.0010831737058783837,-4.6964301591634546e-05
1,133.34,-3.059330362244357e-07,1.1612549806986857e-06,-5.163896694036223e-08,-8.740943892120489e-05,0.0003317871373422445,-1.4753990554378665e-05,-0.0022648656346647205,0.008583361242841033,-0.00038288950910586226
2,133.346,-1.8283702677975637e-06,6.8535974864338455e-06,-3.1003312606532354e-07,-0.0004200696382698186,0.0015656603645694037,-7.137739582060518e-05,-0.009042434321609887,0.03335665657592183,-0.0015417706370270976
3,133.353,-8.784966861764848e-06,3.224622257039756e-05,-1.4956076132962327e-06,-0.0015675293885765566,0.005689375373700758,-0.00026735817195941257,-0.02438851742486297,0.08678674492432568,-0.004168080073275673
4,133.36,-2.8779286148242498e-05,0.00010336209252243176,-4.903978552672723e-06,-0.00414513326469869,0.014629444612580212,-0.0007064620964331745,-0.05070932437841167,0.17367992787636324,-0.008625102525804633
5,133.367,-7.438749335185814e-05,0.0002613933874342871,-1.2645698224786977e-05,-0.008885783079235089,0.03052235393381522,-0.0015054578098925846,-0.08740831779158113,0.28935599516093957,-0.014653436991828323
6,133.373,-0.00014694477250500645,0.0005072534868716123,-2.4848370559448713e-05,-0.015299976638480102,0.0514310125452901,-0.0025620996349945066,-0.13061358772643542,0.4213406107637509,-0.021262389687070928
7,133.38,-0.000290671192330338,0.0009843500743530376,-4.8571315074824595e-05,-0.025764714740156708,0.08488229816359112,-0.004215884512250901,-0.17427392961184676,0.5532541975194656,-0.02692021751621059
8,133.387,-0.0005174216919765998,0.0017253453714307643,-8.492226417636836e-05,-0.03902114230158609,0.12683064385846518,-0.006170100945325607,-0.21194875926093454,0.6689003228415458,-0.030015387640153726
9,133.394,-0.000844684029911606,0.002784258818517843,-0.00013525320147272224,-0.05448238282263458,0.17571605530905535,-0.008210166853622372,-0.23851060165487084,0.7553638667078266,-0.029421420423625375
10,133.4,-0.0012147907133426936,0.00397625804854787,-0.00018930454277977845,-0.06888651165438993,0.22161702136760528,-0.009806946915395682,-0.2510935217972357,0.8048347760005462,-0.024853996828043956
11,133.407,-0.0017570794883860477,0.005722199627757385,-0.0002629627114232934,-0.08605313835788624,0.277223429834757,-0.011238244125593553,-0.24905183739369363,0.8152439742676609,-0.016846488052750457
12,133.414,-0.0024174181200411235,0.00785557593038538,-0.00034443558409162124,-0.10261504211562378,0.3323126566324236,-0.012039719494006564,-0.23347507059492226,0.7897668179091024,-0.0065042955894192706
13,133.421,-0.0031886276045032316,0.010364985984054253,-0.00042892476125031535,-0.11773052487339246,0.38466164441531364,-0.01210004540846022,-0.20691072469290725,0.7354077985239921,0.004746715217103025
14,133.427,-0.00392855337158881,0.012796225722414137,-0.00049974526054616,-0.12891139748845742,0.4257516017046167,-0.011506787690153742,-0.1731331780011678,0.661262056091719,0.015418435243943185
15,133.434,-0.00486812748374331,0.01592524360544295,-0.0005755209648571403,-0.139538348841208,0.4682535077315486,-0.010143413541539463,-0.1364803816822537,0.577020305568163,0.0243031282902273
16,133.441,-0.005873422026256573,0.019331412063604628,-0.000639901843429744,-0.14768866330523317,0.5049374803139489,-0.008251123193477023,-0.1009769840271472,0.4917580258228266,0.0308282759263309
17,133.448,-0.006927764051647094,0.02297464354603928,-0.0006897208688198434,-0.15355191537755755,0.5359858003809217,-0.0059828840608269224,-0.06984739308489134,0.412826984405671,0.03525630174431622
18,133.454,-0.007859260605585557,0.02625744057459577,-0.0007190937323012009,-0.15694693593525158,0.5582798758045342,-0.003808070432958508,-0.045551190450903396,0.3449606876879801,0.03866678880710661
19,133.461,-0.00896696113479092,0.030241669138861966,-0.0007359717446445114,-0.1595389295517689,0.5800711425564226,-0.001014218807983921,-0.02996589282612875,0.28992239826092286,0.04273137686830142
20,133.468,-0.010090251165365553,0.034366653998261054,-0.0007320196304148859,-0.16140107918491414,0.5984959601329747,0.0021433943021664107,-0.02428736922859842,0.24688003614004267,0.049264888352919346
21,133.475,-0.01122641110287621,0.03861141063541223,-0.0007039334321287112,-0.16321604581789856,0.614291650480779,0.005881233779592043,-0.028591227961882678,0.213323436512059,0.05963612640814182
22,133.481,-0.012211889246742472,0.04233241367464744,-0.0006568298136722161,-0.16527666880417638,0.6260426959309112,0.009819972372572374,-0.041450460969530895,0.18610094898593404,0.07424372698998363
23,133.488,-0.013381020345045952,0.046756560428895484,-0.0005680930071632875,-0.16876078785372212,0.6379992338533406,0.015533400915674823,-0.060058472823740085,0.16224978160200598,0.09221557921253837
24,133.495,-0.014579278065733147,0.05125880362025996,-0.00043490112792826034,-0.1735985609138034,0.6483559636784483,0.022521421722877175,-0.08088883072109422,0.13949094171476045,0.11137865260821171
25,133.502,-0.015816256684006203,0.05582803788635804,-0.0002484341822973833,-0.17982390144967392,0.6571395409200697,0.030754848457335327,-0.10048490287122931,0.1164163760343499,0.12850016823427113
26,133.508,-0.01691431093131262,0.059789315304923284,-4.022051945646053e-05,-0.18619418098578452,0.6632862652682958,0.03864970582296964,-0.11604434126787967,0.09251410645205635,0.13985030026190284
27,133.515,-0.01824671626815216,0.06445161605326127,0.00026420655699174777,-0.1944930581125011,0.6687996628327314,0.048329458876809436,-0.1257413603222024,0.06811734740699345,0.14216687478541343
28,133.522,-0.019638743076931413,0.06914670462363429,0.0006356689963888047,-0.20322888725271554,0.6726542144157415,0.057802666665130994,-0.12877482847995025,0.044184045248787905,0.13383265580468287
29,133.529,-0.021091858385885218,0.07386321528124024,0.0010702525787137664,-0.21194691530521745,0.6749202591849944,0.06636407114191221,-0.12522273010079918,0.02183660019519697,0.11560171421901387
30,133.535,-0.022384817314819005,0.0779148281937499,0.0014866112673987424,-0.21903939433936276,0.6756173783181729,0.07242215841974114,-0.1158544652766591,0.0018588558874425105,0.09031594634222757
31,133.542,-0.02394425059420631,0.08264250780479587,0.0020118478285719088,-0.2265129711995485,0.6751482248368537,0.07764543048677051,-0.10188632024513053,-0.015527524781041952,0.06186277398750875
32,133.549,-0.025552251564849547,0.08736301035918263,0.0025668940766401505,-0.23291587755533413,0.6735667907012567,0.08093921181832806,-0.08466074893113755,-0.03054716172821127,0.03410071817794402
33,133.556,-0.027200689364779818,0.09206906091748782,0.003138786918171624,-0.23806635099583462,0.6710190830992655,0.08245874290483328,-0.06539700169134262,-0.04367965963395202,0.010170438537262605
34,133.562,-0.028638842843912618,0.09608641252249632,0.003633743236401546,-0.24131814204841365,0.6680981185701856,0.0825266965051344,-0.045133133559699806,-0.055605503293918515,-0.00786065893868686
35,133.569,-0.030336471804819964,0.10074834799952768,0.004208183533165741,-0.2437187039267369,0.6638834463003764,0.08159910257089899,-0.02480663408576182,-0.0671879151611464,-0.0191645574556845
36,133.576,-0.032046113340760136,0.10537793967841359,0.004774182035433131,-0.24475030634153458,0.6588570333803682,0.08011475521966861,-0.005248843277541943,-0.07925536334315438,-0.02408152996544045
37,133.583,-0.03375842749840073,0.10996934284660469,0.005329235361747054,-0.24448231012685767,0.6529724432447207,0.0784719094413389,0.01305684570961501,-0.0921906928867154,-0.023782369336958063
38,133.589,-0.03522149712274722,0.11386971476374722,0.00579621251040156,-0.24320756465528653,0.6471515291360728,0.07718714011015701,0.030272441783092855,-0.1056653234779533,-0.019887634561139667
39,133.596,-0.0369146518190546,0.1183728022973149,0.00633242493358683,-0.24055092000361988,0.6394449090252015,0.07601640937123923,0.0471282331718686,-0.11886511864523686,-0.014221311596152895
40,133.603,-0.03858515372751031,0.12281888445399064,0.006861796044143225,-0.2367353395548134,0.630864278595532,0.07523247935905147,0.0640377452728969,-0.13112939468903384,-0.008618292497197703
41,133.61,-0.040225001032108805,0.12720208353475307,0.007386822975269858,-0.2317924617587068,0.6214783159071219,0.07477521524845078,0.0799717583686724,-0.14232827181870314,-0.004703982565434415
42,133.616,-0.0416005048591151,0.13090492477021276,0.007834733420562205,-0.22670881391004186,0.61280209591273,0.07452826651565896,0.09282417937645462,-0.1525811347027721,-0.003689938321304664
43,133.623,-0.04316409431456231,0.13515675835508761,0.008355232310126416,-0.22003103050494055,0.6020074997698628,0.07418570193175605,0.10173136362238953,-0.16191671385344408,-0.006290594827237881
44,133.63,-0.04467915729738704,0.13933086712915166,0.008872252113968004,-0.21284410744467377,0.5905950071047233,0.07353424202287787,0.1076578354054315,-0.17058339475015838,-0.012689526063840316
45,133.637,-0.046142950951141286,0.14342298965550643,0.009382781703291276,-0.20538265077052587,0.5785828575672353,0.07233135492652425,0.10972983153901301,-0.17938756628078878,-0.02235628749424114
46,133.643,-0.04735634336320776,0.14686200076641617,0.009811782761481794,-0.19908148658494917,0.5677541794026327,0.0706689978036432,0.10445014448325915,-0.18868505670470673,-0.034148129504461215
47,133.65,-0.048726446308406654,0.1507898776513719,0.010296697716702123,-0.19237649775731241,0.5544963591553435,0.06787813225920887,0.09089802167023193,-0.19757820772095874,-0.04716303746408554
48,133.657,-0.05005356362962018,0.15462290248384125,0.010758806236085947,-0.18679987973199566,0.540653592977981,0.06415287327893207,0.07157534444395051,-0.20572730952215246,-0.06137144767097616
49,133.664,-0.05134688015500558,0.15835686354498138,0.01119127488225488,-0.18271912752221345,0.526192424494199,0.05940959705546197,0.047316346683887935,-0.2155952036654853,-0.07682271426391989
50,133.67,-0.052437601097046836,0.1614744753938643,0.01153280271313699,-0.18085451982485698,0.5130115251334014,0.05443301323857082,0.01606267664403788,-0.23243068899568922,-0.09233405918032325
51,133.677,-0.05370450106911458,0.16500610342127095,0.011890063528408127,-0.18111690076566694,0.49602505412491527,0.04764150541025242,-0.02370707948175615,-0.2624658792506114,-0.10553481633675782
52,133.684,-0.054983723531607354,0.16840944300722535,0.012197170456337714,-0.1843752313748649,0.47635768471850537,0.04010333114099552,-0.07122356478793018,-0.3105379907587585,-0.1140879984806369
53,133.691,-0.05629786597767842,0.17166118118975393,0.012450184318257236,-0.19109403893088667,0.45271036743184995,0.032186343693102054,-0.12452720654775871,-0.37842066154462767,-0.11657144319233305
54,133.697,-0.057471415776461685,0.17430303937541,0.012623072614152138,-0.20008922733018686,0.4279090277868066,0.025443088271863246,-0.18122410843747536,-0.4645902764427711,-0.11263545285060901
55,133.704,-0.058922409456075193,0.17717473783524157,0.012775293111836396,-0.21448039541623315,0.3925762464502012,0.018048482495036454,-0.23805896073456603,-0.5648214372290785,-0.10280452998382361
56,133.711,-0.060487312882446756,0.1797740876442069,0.012878702211629149,-0.23263486926103644,0.35009512753936634,0.011496974588585819,-0.2908670769116177,-0.6728552970220829,-0.08807200806349134
57,133.718,-0.06219096509713134,0.18205008419801513,0.01294024364801211,-0.25412290636475876,0.3001896021222981,0.006086292949461673,-0.3351814893686751,-0.7811296568389685,-0.06956684309923276
58,133.724,-0.06377767292172853,0.18370445630520382,0.01296633542468746,-0.27477970183428513,0.25126776694057534,0.0026109659423214342,-0.36695415224613265,-0.8817499599421933,-0.048561400053461476
59,133.731,-0.06579124883374027,0.1852411823461459,0.012975583622605284,-0.3005277015972294,0.1877968161854195,3.13763199121745e-05,-0.38320735661122074,-0.9674602554323741,-0.02659429596935151
60,133.738,-0.06798687533453546,0.1863155718654401,0.012971984563350684,-0.32679415577237664,0.11917161789841893,-0.0010596789640824728,-0.38205919138364464,-1.0319176677684723,-0.005193325811899478
61,133.745,-0.07036359156194967,0.18689750942974703,0.01296578706537934,-0.3522676234883432,0.04709625761772708,-0.0007110347420144416,-0.360103895208422,-1.0679798589285097,0.01535098769200218
62,133.751,-0.07253600291324935,0.1869919313340086,0.01296621467676938,-0.3718694936115242,-0.01562228953053904,0.0008535718720278332,-0.30617426376806484,-1.0638574537883285,0.037830836683709394
63,133.758,-0.07519974288984443,0.18663463226354413,0.012984886051045823,-0.38919907112938495,-0.08646315917352383,0.004481106492666111,-0.19871862648930066,-1.0000734981075552,0.06785647376774626
64,133.765,-0.07795014599010405,0.1858069322430032,0.013037452697124875,-0.396630386090278,-0.1500225609818137,0.010537935244256138,-0.017790869207654443,-0.8517137165012643,0.10860771129647885
65,133.772,-0.080700841371905,0.18458229023401682,0.01314270583194652,-0.3892825801380035,-0.19987515587119295,0.019534388990478206,0.2318673509032167,-0.6007291197182868,0.15350170996986703
66,133.778,-0.08297114817282653,0.18330745476139587,0.013289793063030826,-0.36748635350247655,-0.22507000166910168,0.029494688037622438,0.5089981718296943,-0.2556573050685595,0.18505423751283964
67,133.785,-0.0853920628163734,0.18171791505348356,0.013540558904258745,-0.3242035446532819,-0.22908420059123405,0.04215269517030297,0.7520355975050717,0.13870462726816038,0.18373362240645674
68,133.792,-0.087461759569116,0.1801927996814095,0.013874504169464154,-0.26713838470132617,-0.2066630485724741,0.05326023774545997,0.9105435110419687,0.5145300077934393,0.13988184188560354
69,133.799,-0.08910644138898344,0.17890482145529815,0.014271140554424792,-0.20277070668903197,-0.1613307303162188,0.06006444367178411,0.9647926278389578,0.8062157035707268,0.05835698952891827
70,133.805,-0.09015635794841036,0.17809349275972164,0.014632612462924957,-0.14720147978659476,-0.10911216820927559,0.06042619249493265,0.924035425996454,0.9687214430573686,-0.046060951529243825
71,133.812,-0.09097803233663562,0.17756414020710512,0.015031332631489966,-0.08756263113474294,-0.042131418252481095,0.05349385566641688,0.8135274566774515,0.9827458908944946,-0.15591094155236962
72,133.819,-0.09141370478015381,0.17748973037136997,0.015356340078589725,-0.03691520987087023,0.02087146518522505,0.03936541493382466,0.6620724464216019,0.8528273007055768,-0.2557176321382088
73,133.826,-0.09153309246408248,0.17781094146300905,0.015561042724285637,0.002804443034133755,0.07090313242587606,0.019121055264965582,0.4951496690372404,0.6048327635107684,-0.3340967043097149
74,133.832,-0.09144316675946162,0.17831467653684704,0.015612339565348354,0.027170791839481002,0.0970085588534509,-0.0020221082440603153,0.33307569522566016,0.2825047889858829,-0.38457084981682504
75,133.839,-0.09118998394326272,0.1790204863249485,0.015503277488675376,0.04516715564587054,0.10465138060395768,-0.029138485091054243,0.1912438461460965,-0.05983309607483865,-0.4054579818425825
76,133.846,-0.09084120126708714,0.1797016505930923,0.015202680777449547,0.05448503754708169,0.08996698172270214,-0.05674628954483556,0.08023030371881285,-0.3679931786977478,-0.3988884697638446
77,133.853,-0.09044950739283417,0.1802152739801276,0.01471317381745973,0.057427497953688005,0.05678255743013619,-0.08311284188072648,0.0054975415000425324,-0.5988266918577932,-0.36929441301386484
78,133.859,-0.09010732058844262,0.18043885183719433,0.014153479932779092,0.05663477017682385,0.017743394925435772,-0.10345178634614577,-0.032442787051585736,-0.7281355397129247,-0.3220373011943005
79,133.866,-0.08971919175557329,0.18038504629407257,0.013359090619246694,0.054259182071478486,-0.03311640724593038,-0.12351658894866266,-0.036769375987741534,-0.7536520278000767,-0.26254568520494476
80,133.873,-0.08934530487721773,0.1799795050077694,0.012439411451787523,0.052565640316181925,-0.0827525316982193,-0.1392488874691224,-0.01257153787616639,-0.6924839965873102,-0.1958108824743449
81,133.88,-0.08897477613581209,0.17924809937333364,0.011426002292452846,0.05329971437106637,-0.1262205067118546,-0.1502965866262929,0.03395860117021159,-0.5739445424610249,-0.12606105885883515
82,133.886,-0.08864362538410196,0.17840213135502828,0.010508097614196577,0.05708386953230724,-0.1557688327232556,-0.15567163945911897,0.0946668778411644,-0.43041902754503725,-0.05663989178268082
83,133.893,-0.08821364424895063,0.17722526181975654,0.009412798641556672,0.06576788336798475,-0.1804796059255765,-0.15727092415205865,0.15833968507194052,-0.2895231458723664,0.010045133766770539
84,133.9,-0.08770884455702638,0.1759067621861617,0.008321849698409064,0.07846060003884339,-0.19623457510124936,-0.15442877388989232,0.21145942852807514,-0.16949392565305235,0.07276020057746932
85,133.907,-0.08710531121725242,0.17450330705036127,0.0072653618937794096,0.09397749703930736,-0.2047526065557296,-0.14742488457550754,0.2406214699425073,-0.07867678225504093,0.1312963562161286
86,133.913,-0.08649946986131422,0.17326618323481197,0.006408738514476227,0.10796962160674982,-0.20762199862735084,-0.13811624185887575,0.23497840590506988,-0.01885540497237231,0.18510944041613703
87,133.92,-0.08569273337831747,0.17181182487684313,0.0054919953087257415,0.12252651639309586,-0.2079089607937073,-0.123810388356425,0.18913306907494745,0.010494834299631843,0.23168800978343196
88,133.927,-0.0847994292286379,0.17035895793436356,0.004685173859676389,0.13270324065802974,-0.20719587991444607,-0.106710025657511,0.1073632374379542,0.01028059809313156,0.26652676427008615
89,133.934,-0.08385681038516286,0.16890767904988999,0.004004451954725398,0.13661642890607337,-0.20745522993485285,-0.08778194718549033,0.006646519732386715,-0.01783669582583894,0.2849380499706047
90,133.94,-0.08304405255150027,0.16765511093549232,0.0035279988331784755,0.1343028489814466,-0.21006747486435415,-0.07103575999681104,-0.0852863517044559,-0.07095492107021918,0.28427390275802505
91,133.947,-0.08213068161449648,0.1661586135688543,0.003096741531374696,0.1266602758765917,-0.2175032013176313,-0.052180611947037894,-0.13737809697794462,-0.1456831023489277,0.26506610194023483
92,133.954,-0.08127557168506674,0.16458983247636544,0.0027910126658304787,0.11765684681744248,-0.23071996796458258,-0.03517049249410462,-0.12493454827932722,-0.23938407573771617,0.2305194577979055
93,133.961,-0.08047145219761725,0.16290395559519308,0.002594731296157251,0.11209157816796046,-0.2509591409414592,-0.020909898841063174,-0.03720815661925964,-0.3502791477414592,0.18495935805026925
94,133.967,-0.07979160372813474,0.1613252584580997,0.0024972688895323085,0.11452457832620305,-0.27527323808964577,-0.011577570033916362,0.11990714687051746,-0.4761701544560509,0.13225154159933789
95,133.974,-0.07893632931066022,0.15926754600610868,0.0024411130475220258,0.12983954095304742,-0.31264460533832716,-0.0044669562547895655,0.32629044432366805,-0.6126352479656706,0.07491440568135097
96,133.981,-0.07792176106219945,0.15691519166742654,0.0024205818306078553,0.16003710146410813,-0.35945663428465713,-0.0013991057206835266,0.5535078998331509,-0.7512214628609198,0.014466649422040142
97,133.988,-0.07664254028230501,0.15420321479036533,0.0024070362726381256,0.20545454993404264,-0.41539390201798726,-0.0024710536992365115,0.7697180589339558,-0.8784967890625978,-0.04569758465628626
98,133.994,-0.07525981406973786,0.151547035966418,0.0023794856567067586,0.25545418758831945,-0.46999903929775794,-0.006712484944552078,0.9297966463689056,-0.9775613374729207,-0.09847095557968988
99,134.001,-0.07324492414488006,0.14801611264290399,0.002304051012556452,0.3202286480849287,-0.5388361959912407,-0.01484027052694863,0.9573909980666245,-1.0279919406869749,-0.1383300368195128
100,134.008,-0.07079516943861393,0.14400073521436774,0.002163866596716412,0.37970126799060944,-0.6084144978754379,-0.025212419713034277,0.7753288518206102,-0.999154416534108,-0.16385992570819571
101,134.015,-0.06799783419286355,0.13951918860135015,0.0019470360249234772,0.41953737365502913,-0.6720273915624403,-0.03673917222801147,0.38528608555214827,-0.8541912705314536,-0.17196911493596662
102,134.021,-0.0654561105639403,0.13536038595215744,0.00169730849059457,0.4277038359860246,-0.7142401581684086,-0.04650333921495446,-0.10770361749917094,-0.5806434795604621,-0.15992019782434133
103,134.028,-0.062542771666621,0.13026488133632894,0.001336638073951694,0.4046787061046049,-0.741618303495837,-0.05654535125436501,-0.5631277609576727,-0.2170119110573884,-0.13265130181849213
104,134.035,-0.05988333054349069,0.12506670783742194,0.0009128735789897574,0.3551616147892276,-0.7435741247622452,-0.06453021873467318,-0.8795402628641183,0.16002954948476159,-0.09998580755706923
105,134.042,-0.05762486263897985,0.11993776287124498,0.0004407043139700988,0.29011492935626615,-0.7218387227158374,-0.07037528555656145,-1.015578586747843,0.47322593229523363,-0.07030874684906142
106,134.048,-0.05605998291024084,0.1157079395599833,7.91804715837821e-06,0.23151164689004847,-0.6881023810380018,-0.07388680338067329,-0.9763786554029924,0.6734905535531212,-0.049049641731194915
107,134.055,-0.05465240040798144,0.1110620568498387,-0.0005197864266163634,0.17065478232663747,-0.6392926790023635,-0.07688590341200228,-0.7966708150618016,0.7485678611990659,-0.038328384734136856
108,134.062,-0.053616876122515394,0.10676308942105059,-0.0010669651479075623,0.12520929923487673,-0.5889837292219363,-0.0794508740996571,-0.5273719253739023,0.7171707601997148,-0.036401392294803187
109,134.069,-0.05283058751032743,0.10280028952870687,-0.0016321772766330546,0.09944458996243535,-0.5432448114514846,-0.08203830553673815,-0.22327641085064406,0.6154211259359965,-0.03898277303002938
110,134.075,-0.05224775263216569,0.09963773166351486,-0.002131518236429177,0.09483370275813797,-0.5109411436124794,-0.08440868106196289,0.066549862902833,0.48259800186687046,-0.04158757210055926
111,134.082,-0.051539374185794226,0.09616129940181921,-0.00273228683214777,0.1075601390621346,-0.48232521687128277,-0.0872394891432268,0.3042316637430808,0.35111983948644504,-0.04088731065063167
112,134.089,-0.050693960177339036,0.09285612218258765,-0.003352122223865791,0.13398672049631963,-0.4620111314799151,-0.08985633706179544,0.4657001517426546,0.24072593838157966,-0.03535389647679922
113,134.096,-0.04963506639137977,0.08966973938387637,-0.003988474327429265,0.16855436120611136,-0.44838395386551544,-0.09195854967049574,0.5414193818614967,0.15629846020480123,-0.02589354010082368
114,134.102,-0.048528761420665714,0.08700117398372824,-0.004543900151933616,0.200213962365225,-0.44113784618382784,-0.09318339183094773,0.5347075714172291,0.09000065592854707,-0.015739506877568213
115,134.109,-0.047008060318349525,0.08392725819739283,-0.0051991715438579715,0.23427206686766228,-0.43712380705423204,-0.09403700586159142,0.45756675270868663,0.026947366356416154,-0.009130323598779732
116,134.116,-0.04527400791524497,0.08086486988333783,-0.0058596776378434514,0.2611714768761431,-0.4378442826751457,-0.09467902099126793,0.32614080458185735,-0.04793824269071541,-0.009574626021443182
117,134.123,-0.04338756980054217,0.07777688786263237,-0.006525807839343917,0.2778108416121737,-0.4444362946722222,-0.09564389372378748,0.1586429095621517,-0.14411837186889626,-0.018536698801807933
118,134.129,-0.041708918392250126,0.07507439006170744,-0.0071043868262284995,0.28173962781848516,-0.4563963056360538,-0.09721576857106592,-0.025101343165494838,-0.26240886437151856,-0.034892176749591206
119,134.136,-0.03976442249047351,0.07180057727403485,-0.00779571967470536,0.27383062983158024,-0.47897877655544424,-0.10030790242218154,-0.20532532756738997,-0.3955257563595826,-0.055196366698358194
120,134.143,-0.03791609400345462,0.06833638132441891,-0.00851344446866578,0.2542632236020105,-0.5107914947626914,-0.10475632442350627,-0.3647661403812774,-0.531329801777699,-0.07440729149922182
121,134.15,-0.036238972481001386,0.06461812256541054,-0.009266098829916946,0.2249143542414283,-0.5515681506675141,-0.1102877787909591,-0.4903058001768773,-0.6566878307120194,-0.08675024278178387
122,134.156,-0.03498340806563875,0.06118365906374826,-0.00994313463774392,0.19360711754610113,-0.5932530165532021,-0.1153908238180236,-0.5738440945485039,-0.7602032886028115,-0.08670501554001135
123,134.163,-0.03377065617680018,0.056839437443305885,-0.010769710551484192,0.15289342212181492,-0.6479531607151616,-0.12077372296474254,-0.612339200147504,-0.83347167865834,-0.07012439968085843
124,134.17,-0.032846882203996224,0.052098956643323605,-0.011627785807595405,0.11104199868019811,-0.7064699249985925,-0.12439063592499613,-0.6069915147028953,-0.8713995576565705,-0.035253451362367884
125,134.177,-0.032210060167053176,0.04694424213756315,-0.01250073754764078,0.0709071547319704,-0.7663056480747689,-0.1250241469449327,-0.5623270875633231,-0.8718992119431724,0.016796266844395665
126,134.183,-0.031877089447599004,0.042195759794262246,-0.01324214101413362,0.040083085086083235,-0.8165217996921393,-0.12211034188600475,-0.48539969803236965,-0.8349749199764469,0.08224554182379795
127,134.19,-0.031700899077462485,0.03628837872292437,-0.014068367823483722,0.010257020667172018,-0.8713013635460486,-0.11395446078528447,-0.3835752007466632,-0.761013920070725,0.1553740064481678
128,134.197,-0.03170637421262764,0.030020017052277588,-0.014819794522265345,-0.01182134500007214,-0.9196591137803232,-0.10073888172359717,-0.25967244002270934,-0.6478769924147529,0.22965857163996214
129,134.204,-0.031833479811401603,0.023445971645298214,-0.01546153449636988,-0.024494540363892304,-0.9586395739267278,-0.0826153965918534,-0.1095579251977164,-0.4878089276024023,0.2983646176311906
130,134.21,-0.03198395344769078,0.017627385339388676,-0.015899699017427372,-0.025663338399164393,-0.9808891947097111,-0.0634394437606389,0.06982984832226127,-0.26846770723152674,0.3534363824117659
131,134.217,-0.03212316211198514,0.010730956601766123,-0.01625515499609327,-0.014110565684909008,-0.9895190160381812,-0.038119407286688306,0.2667572842939337,0.017040029410460834,0.38425652346427586
132,134.224,-0.032135605735936074,0.0038489493196759584,-0.016430213244065038,0.01055524455605949,-0.9767687788513014,-0.011897234991126562,0.45187490453568774,0.3544349299843643,0.3797198830892792
133,134.231,-0.03193634181381656,-0.0028616343432051944,-0.016427758454340288,0.04637730462090255,-0.940540839113372,0.012598603483911473,0.591791822046128,0.7010569989735663,0.3339602210097769
134,134.237,-0.03154710903563792,-0.008355003692984302,-0.016300500959492405,0.08336695477197455,-0.8905822774795946,0.029820561465380924,0.6655063770014772,0.9970615101937,0.25142343808783535
135,134.244,-0.030803069557862776,-0.014326641910275377,-0.016043911737306203,0.1292157531636292,-0.8156000703166362,0.04349064487348173,0.670286853441186,1.1875262706315513,0.1468510100261935
136,134.251,-0.029743890596905152,-0.019744153157956766,-0.015717016331539706,0.17340680710976156,-0.7322602861626549,0.049908042488308296,0.6172084087708488,1.2405574175923042,0.04011825834408807
137,134.258,-0.02839298866582093,-0.024582294162309854,-0.015368903920993791,0.21256517319974033,-0.6500657150800968,0.04955264623902477,0.5236607562476638,1.1541607753103078,-0.05047263884196507
138,134.264,-0.02703536798927476,-0.02829668977755013,-0.015086005391410928,0.23997505231563274,-0.5880661566666141,0.04474686362192601,0.4080158480936544,0.9532377217462944,-0.11287850951479897
139,134.271,-0.025272039372404652,-0.0322168618695531,-0.014803487167273543,0.26383312393465563,-0.53198301248084,0.035972628989025514,0.2870830787745639,0.6807306040023922,-0.14275661367580122
140,134.278,-0.02336973050167396,-0.03581253320577884,-0.01458593212146686,0.27968369627372447,-0.4953516550114925,0.02618595552712534,0.17471936691447693,0.3865147992792405,-0.1423756606160075
141,134.285,-0.021381245601878852,-0.03921952776414296,-0.014433938258163977,0.2884548465244716,-0.4780753616632756,0.01724086255938167,0.0808258935754062,0.11682567007295681,-0.11823737726389418
142,134.291,-0.019642403929579073,-0.042085931993573175,-0.014347865943856442,0.2911590442420996,-0.4773927148134262,0.011449908876461929,0.011091248283361327,-0.09362213472196651,-0.07860026803868181
143,134.298,-0.017606870674655613,-0.045466036155772833,-0.014280971633265672,0.2904218857356158,-0.4883513315286437,0.007662751292315784,-0.0325681763003788,-0.22565441202975323,-0.031737617379986385
144,134.305,-0.015583982971772556,-0.0489447468081039,-0.014229358569997085,0.2875460293734157,-0.505565997708093,0.007083838212984361,-0.05121917680616469,-0.2758905652323796,0.014871130154306175
145,134.312,-0.013583009584375201,-0.052547399155039205,-0.014171379669264324,0.284160652739706,-0.5237632442726868,0.009481561996364095,-0.04741292149177904,-0.2542816448664773,0.054985950307217986
146,134.318,-0.011884420451578769,-0.05572832693452611,-0.014102183833362418,0.2820357248590835,-0.5365460155562425,0.013583716637603663,-0.024814525550870905,-0.18021165928785157,0.08444850288659819
147,134.325,-0.009911974835237888,-0.059515039676715564,-0.013984716802726938,0.2815201655259106,-0.545371910787222,0.019978292115502963,0.00979383381400483,-0.07692858245799164,0.10185584825473944
148,134.332,-0.0079343496491064,-0.06333763722310218,-0.013819643543292518,0.2835156019398249,-0.5467988167510294,0.027185496294297527,0.04834270513552429,0.035356035438329346,0.10812423606965607
149,134.339,-0.005933556851760641,-0.06714379547593553,-0.013603692352074684,0.28813948301569803,-0.540674969772008,0.03451484405361073,0.08637290914865478,0.1430607088559429,0.1054144708080521
150,134.345,-0.004186392968724125,-0.07035425631863933,-0.013378797176616738,0.29424847799645193,-0.5294786444625478,0.040450214432368715,0.12127513174718935,0.23750843927176823,0.09633197603355587
151,134.352,-0.0020942040049759213,-0.07399448229998969,-0.013074027155996544,0.30351979735975054,-0.5105859216368133,0.046626934316196085,0.14884243026552582,0.31292629709068737,0.08362520706808457
152,134.359,6.831242064796487e-05,-0.07748690089403333,-0.01272920916610433,0.3143420385323469,-0.48724796237494317,0.05189249136722321,0.16646084929007066,0.3670192868273225,0.0697854756544516
153,134.366,0.0023098593639913263,-0.08080526737532703,-0.012350808933551435,0.32609994527958436,-0.4608567465654379,0.056221860790669334,0.1761028118765599,0.40188216006218325,0.05634961557571308
154,134.372,0.004298047841563428,-0.08349758191148075,-0.012004646904956338,0.33662954724442434,-0.4365814321524345,0.05916548207435874,0.18180404944847897,0.42324889600699767,0.04370566268578283
155,134.379,0.006698639077906024,-0.08645020261569347,-0.01158145573447048,0.34925366314146933,-0.4070244833397382,0.06174628092200535,0.18599639783072733,0.43788538715203146,0.0314852638110401
156,134.386,0.009188402740001139,-0.0891926607588822,-0.011143181460671482,0.36210738317091223,-0.37653498614219594,0.06347494016333308,0.18849350820049274,0.4504184590724455,0.01887878919166704
157,134.393,0.011768344161338026,-0.09171885518200247,-0.010696010621968264,0.3750187372105288,-0.34523484903450796,0.06428815660892383,0.1876755502476701,0.46150317741666036,0.004814067786292548
158,134.399,0.014051079625550226,-0.0937081982463662,-0.010310887135171922,0.38589308419350865,-0.31787950575337454,0.064086338989852,0.18194938055538804,0.46831972442825703,-0.011673957727363935
159,134.406,0.016794659112303947,-0.09582102611968005,-0.009867396603742883,0.3979867691641373,-0.28578560090729255,0.0626252414183544,0.1703970948500037,0.4667281358373814,-0.030894753198284986
160,134.413,0.019619385943315783,-0.09771098005608045,-0.009438990283705748,0.40907803969581025,-0.25420123806386347,0.0597765643064539,0.1527442875403735,0.45347434610545573,-0.05210073927434389
161,134.42,0.02251678943679685,-0.09938457155937093,-0.009035640571095975,0.41875152987297865,-0.22396776287787495,0.05546621072529508,0.12909042016746552,0.42737036309230175,-0.07348033016536544
162,134.426,0.025049479103318527,-0.1006562998239423,-0.00871749463051741,0.4254783589675474,-0.19994165864589725,0.050582436134222614,0.09955813615463846,0.3892899042425101,-0.0925218075361698
163,134.433,0.028047454438363813,-0.10196810920342463,-0.008387337032491666,0.4310860224733513,-0.17486102120593086,0.04374830615877983,0.06381973223932808,0.3414281708813955,-0.10658885353675812
164,134.44,0.031075231392196145,-0.10311668569668823,-0.008107550507611973,0.4339931071924108,-0.15330369115486553,0.0361907009496464,0.0208774512041929,0.286639228020659,-0.11360007683565036
165,134.447,0.03411205329619207,-0.10412794271185274,-0.007881388789880064,0.4336702939486613,-0.13562688460621833,0.028426932687995565,-0.030282534016054338,0.22837009287411464,-0.11259536231301158
166,134.453,0.03670346337869971,-0.10490646182585783,-0.007729930986174367,0.43013306688718694,-0.12387948672880317,0.022059001880567974,-0.08994972543626319,0.1709303096559615,-0.10385404726883164
167,134.46,0.0396846118366019,-0.10573872621147858,-0.007598627333142241,0.4216236353699732,-0.11391033773409634,0.015456327557155508,-0.15797042545865092,0.11951834347226425,-0.08851321149093845
168,134.467,0.04258892045070818,-0.10651217250453911,-0.007509229090993031,0.40817882580265763,-0.10707431742589588,0.010086027342600674,-0.23374072586085345,0.07964739197097599,-0.06794913700439002
169,134.474,0.04538028761814823,-0.10724541061182552,-0.007451989626374481,0.3893546506114533,-0.10242228465663719,0.006268105405611284,-0.31469689238120846,0.05588841483284011,-0.04328506011118721
170,134.48,0.047653787648184676,-0.10785057514537119,-0.007419559216393277,0.3684786927340003,-0.0992992265252438,0.004542031254789861,-0.39488819792153457,0.050266018855635974,-0.015385133101967704
171,134.487,0.05012980172550528,-0.10853229267347665,-0.0073878561941032395,0.3389539007856668,-0.0954772100761779,0.004515975113785594,-0.4653092030640189,0.06108747084087932,0.01462599397540567
172,134.494,0.05238457647464401,-0.10918333677007923,-0.00734910885347632,0.3052674561106503,-0.0905353889529963,0.006554693636754909,-0.5161369052980891,0.08289124690030582,0.04477155835512974
173,134.501,0.054394528671041456,-0.10979419333411876,-0.0072891880358861814,0.2690046000024954,-0.08399505791531472,0.010565539960415425,-0.5403723033403353,0.10765965588146244,0.07208344233048812
174,134.507,0.05591337998492811,-0.11027745485766056,-0.007211224443808341,0.2372791712930362,-0.0770921165986132,0.01542232406553024,-0.5379921639499892,0.12697505004772017,0.09300127416680815
175,134.514,0.057447415967488286,-0.11078568165328198,-0.00707959335720989,0.20101682372384436,-0.06811553929311732,0.022186557819714695,-0.5185022285334178,0.13455527610820367,0.1040729780477495
176,134.521,0.05873238870115951,-0.111230919238123,-0.0068994280103873455,0.16611824304059122,-0.059095199233316895,0.029289255558327176,-0.49825915811660026,0.12825006690846957,0.10286233737993761
177,134.528,0.05977625778346673,-0.11161593023571552,-0.006671362035086848,0.1321300661898292,-0.050907942935893576,0.03587245167033984,-0.49197784143363865,0.11028358984245146,0.08893742858085601
178,134.534,0.06048109055934769,-0.11190410234357147,-0.006442602204911023,0.10281419243714854,-0.04514942634942066,0.04038082505493229,-0.5044845506737426,0.08545150102183287,0.06430461923337497
179,134.541,0.061076623073849194,-0.11220283779468017,-0.006148274225466124,0.06733795456315955,-0.040203559681575865,0.04371288335783582,-0.5291067331988955,0.05864508264744859,0.03277406288251133
180,134.548,0.061418062057482674,-0.11247322568502927,-0.005838497661705299,0.030216040760622627,-0.03705012327525209,0.044794706288050774,-0.5524309056922185,0.03322949535600601,-0.0012554234107771667
181,134.555,0.061495840508916905,-0.11272731295801253,-0.005529146033007325,-0.007993626065144178,-0.03554624043419766,0.04359147333987862,-0.5607981444418232,0.010585753656605993,-0.033800466453208736
182,134.561,0.061350281489180834,-0.11294050173407771,-0.0052760426633548674,-0.04052604718021042,-0.03551668492086359,0.04077631654427048,-0.5449964308400862,-0.009581145785618351,-0.06188823443200795
183,134.568,0.06094079386523648,-0.11319369974446475,-0.0050081116499183995,-0.07647041680380717,-0.03682560376109465,0.03577540158037997,-0.5022337540292504,-0.028553876010236488,-0.08381216752226178
184,134.575,0.06029281155295431,-0.1134606566194977,-0.0047796547217510916,-0.10866738670600473,-0.039447789105715426,0.029498006467640593,-0.43581688077483743,-0.04784283568553118,-0.09907816309917167
185,134.582,0.059437342652078236,-0.11375078705926518,-0.00459806484903935,-0.1357522992584138,-0.04344662225636325,0.022384814307105625,-0.3532952465611965,-0.06866216422036253,-0.10816290467568043
186,134.588,0.05856834450417949,-0.11402563166055087,-0.004483207104026104,-0.1539137500411575,-0.04816824483886265,0.015901100697308254,-0.2640222805842614,-0.0918283390775433,-0.11222202493151216
187,134.595,0.05743796661646404,-0.11438800334851505,-0.004398928178542126,-0.1690513607344557,-0.055366523150830314,0.00817859229809673,-0.17700820654982985,-0.11789169235775877,-0.11277131848359047
188,134.602,0.05622140000980129,-0.1148074103125377,-0.004368601937205631,-0.17853909831179668,-0.06446403799841123,0.0004860480837526491,-0.09941464579553023,-0.14716211872450008,-0.11134902592814136
189,134.609,0.05495539609811159,-0.11529791162198415,-0.004391700413667868,-0.18317630502785892,-0.07567919327190127,-0.007085612787244098,-0.0356892076700531,-0.17958861451648672,-0.1092494126238714
190,134.615,0.05385430457430705,-0.11578678053025603,-0.0044533355365360214,-0.1838542029069733,-0.08727710948538432,-0.013459428168806046,0.012647092400844436,-0.21463082547177345,-0.10740001681301438
191,134.622,0.05257444250934535,-0.11645368531661213,-0.004573229014923997,-0.1818206727961083,-0.10326711518765097,-0.02079585137059104,0.04659929684562258,-0.251233976248203,-0.10634483130476444
192,134.629,0.051315567509535115,-0.11724132971350064,-0.004744341255488594,-0.17785789857944728,-0.12177414106696136,-0.028093360219457363,0.06885513507191071,-0.2879635764145983,-0.10626625691134363
193,134.636,0.050088776211114336,-0.11816717176878098,-0.004966620706775358,-0.17265390096909627,-0.14275216044152067,-0.035415054433858235,0.08276202880150464,-0.323225751367914,-0.10704946585682584
194,134.642,0.04906822461048149,-0.11908358763926159,-0.00519811955265769,-0.16752996590850425,-0.16271979638533662,-0.04175122752691626,0.09140329304954661,-0.3554849855237253,-0.10832048185069194
195,134.649,0.04791813972600076,-0.12031140134330819,-0.005516524680503518,-0.1610657153714713,-0.18808411905629527,-0.049221666143255405,0.09693102344642676,-0.3834981875837514,-0.1093288717245075
196,134.656,0.04681437204160332,-0.12172291104187195,-0.00588729671255829,-0.1542964801704286,-0.2152043662473508,-0.0567132001580324,0.10028894466669326,-0.4066434055782107,-0.10893509098801452
197,134.663,0.04575854772499424,-0.1233292954333014,-0.00631011349074968,-0.14736761028909098,-0.243762602732162,-0.06409159361084953,0.1015819397792887,-0.42539364463890295,-0.1060325498566266
198,134.669,0.0448922269857573,-0.12486839511043073,-0.006712853238567098,-0.14140596945654527,-0.26927062297759363,-0.0701549889949515,0.10105745398397376,-0.44163774886892654,-0.10006553610550917
199,134.676,0.04392653811180172,-0.12686137903796066,-0.007226914625288719,-0.1345051373888302,-0.3001533563185813,-0.07671969292600303,0.09999655580204338,-0.4581229336734875,-0.09119546480636477
200,134.683,0.04300911133019502,-0.1290747779961091,-0.007784546717343591,-0.12761680021289787,-0.33224634600909875,-0.08260376194670344,0.10069341844800721,-0.47689826376453415,-0.08023540887035192
201,134.69,0.04214055520920973,-0.1315176067982907,-0.008380647342306242,-0.12054209149700768,-0.3657047403279927,-0.08771070232821825,0.10542644382868802,-0.4979036547257628,-0.06855401700789422
202,134.696,0.041436783145373225,-0.13380156693984158,-0.008918064279753947,-0.11404859644848533,-0.39561530685560303,-0.09142827682100986,0.11529096216697451,-0.518772666192838,-0.057808349100528025
203,134.703,0.040667885956280764,-0.13669755002645878,-0.009570945413609828,-0.10563631472063337,-0.4318084321772909,-0.09510918999482268,0.12979875400509705,-0.5357049534883275,-0.04943413209656605
204,134.71,0.03996170305452472,-0.1398500014897077,-0.010247958400027799,-0.09613022863809148,-0.4688919858931794,-0.0983230918387453,0.14715867743275676,-0.5447150739088815,-0.044202091251011266
205,134.717,0.03932626358994095,-0.14326287761956807,-0.01094658738595247,-0.085423904099998,-0.5062154797805208,-0.1012851898538753,0.16476740007837298,-0.5426955501447607,-0.04209789076200725
206,134.723,0.03884413043392968,-0.14639466447763508,-0.011561764073380252,-0.07528714790375245,-0.5377134729084421,-0.10377370595537751,0.1797864212654828,-0.5279382588154857,-0.042488116403270555
207,134.73,0.03836150567121478,-0.15028215951649773,-0.01229862679551856,-0.06260564144382286,-0.572999395341744,-0.10675850037055817,0.1896860856550258,-0.500108232477086,-0.04447311952746915
208,134.737,0.03796918294753352,-0.15440848531784615,-0.013056959176051701,-0.0494865653221713,-0.6059508336141065,-0.10990789406732712,0.19253490350297806,-0.45992364887278137,-0.04728367514805917
209,134.744,0.037668375198430915,-0.1587544977218843,-0.013838065781049135,-0.03645850584994142,-0.6357669961101936,-0.11326542164606584,0.18703433842456446,-0.408762759870726,-0.05053704792502516
210,134.75,0.037481365378814,-0.16263592003011523,-0.014526908187784297,-0.02587810068902912,-0.6580404399667378,-0.11634871393231232,0.17259935099067575,-0.34832363410830447,-0.05426572319614774
211,134.757,0.03733893759877397,-0.16731773192540492,-0.015354923342923217,-0.01481555075094872,-0.6796201015436459,-0.1202270446786386,0.14970526411590995,-0.28039438819267676,-0.05872846941290569
212,134.764,0.037267663764637395,-0.17213359185005456,-0.016211266452201844,-0.005548401859486404,-0.6963398769267004,-0.12444241511507984,0.12029079224688455,-0.2067320699626856,-0.06408528995120584
213,134.771,0.03725382386637705,-0.17704830843839287,-0.01709848261358712,0.0015941452136600063,-0.7078648626032297,-0.1290479167101331,0.0878055235379672,-0.1290454942868731,-0.07009484277414363
214,134.777,0.03727614090161722,-0.1813112184803601,-0.017885664222538823,0.005844866533062116,-0.7131051513858006,-0.13334595294042476,0.05667879133686941,-0.0490747534555821,-0.07599773149234877
215,134.784,0.03732763437223893,-0.1863050879953986,-0.01883790191811069,0.008867553644559715,-0.7137147100527488,-0.13872196007991372,0.03138643878745409,0.03131541472849947,-0.08063088682816774
216,134.791,0.03739534663250467,-0.19128410118797284,-0.01982857358182069,0.010478806431350908,-0.7088604878245858,-0.14432708669417033,0.015557006638136636,0.11011113119870561,-0.08267306986747383
217,134.798,0.03747192828244613,-0.19621065563536133,-0.020858514324393014,0.011401664980479143,-0.6987264971425514,-0.14994169689771206,0.011330245499882681,0.18514014310501753,-0.08090718882106133
218,134.804,0.03754300861491124,-0.20036425429417856,-0.02177187592959846,0.012291779174558221,-0.6858063891298075,-0.15451217150409188,0.01892521700359015,0.25402131069566647,-0.07444571308324684
219,134.811,0.03763571290765731,-0.20509663999809088,-0.022869957722301056,0.014195161610014485,-0.6663038119870348,-0.15922548355356844,0.036529352394432134,0.3141813780850164,-0.06287545016452613
220,134.818,0.03774675713063191,-0.20967940366768723,-0.023997648602942696,0.017531759239846477,-0.6430572364681245,-0.16297191091524152,0.06068158187188156,0.3631017634244602,-0.04627577044802876
221,134.825,0.03788722631997106,-0.21408926885672264,-0.02514702913799858,0.022602294857189075,-0.6169042461176378,-0.16542252767325263,0.08704720034250689,0.3988590445279899,-0.025122333550476914
222,134.831,0.03804034588542521,-0.217718346200909,-0.026141796801624075,0.02843756029419087,-0.5927882019444377,-0.16616669353523372,0.11129662542883449,0.42085833001544914,-0.0001722662697493187
223,134.838,0.03826838488219233,-0.22176559709890648,-0.027301671421258278,0.03671643878208267,-0.563569197482588,-0.16522605493144474,0.12990642083892057,0.43043002932172764,0.027577535836488327
224,134.845,0.03855792249750811,-0.22560711548902665,-0.028448110629271734,0.046008594165224764,-0.5340074854081027,-0.16232800450073692,0.14081819338088972,0.4308430302701731,0.056856435884035286
225,134.852,0.03891417330699664,-0.22924216460627095,-0.029567235971150938,0.05577735140285292,-0.5045779766609533,-0.15742209317880734,0.14379209621476163,0.4265783185704712,0.08607605881310745
226,134.858,0.039273910761866114,-0.23219471910998102,-0.030494165162507563,0.06413513355363448,-0.4796068579090295,-0.1515543039400561,0.14029343590821108,0.4222035030139582,0.1133732685566207
227,134.865,0.039755686440592984,-0.23545063351820925,-0.03152498985437576,0.07351506036823004,-0.4506544015840842,-0.1429670365935049,0.13298837693129367,0.421319043273499,0.1368146096847493
228,134.872,0.04030128752122466,-0.23850343894725742,-0.03249073556143692,0.08237096266928076,-0.42157572100048446,-0.13296030828091315,0.12502611326652097,0.42588101510027043,0.15472890743547343
229,134.879,0.04090723326191397,-0.24135092334114316,-0.033382922254093554,0.09075639181395864,-0.3919912486838783,-0.12195017533612164,0.11928125963731583,0.436055158435185,0.16604855173263777
230,134.885,0.04147269337599974,-0.24362461917503903,-0.034084915085522895,0.09773031288129258,-0.36590736261471607,-0.11204743514031659,0.1177660863756336,0.4505502256379105,0.1705509392863707
231,134.892,0.04218553135051363,-0.24607571557510077,-0.034828462695874834,0.10593767983681607,-0.3344058945452798,-0.10039473924580009,0.12135348935009843,0.4672371378760241,0.1689474301002388
232,134.899,0.04295726484604058,-0.2483022993891901,-0.03549137053366612,0.11455760459929794,-0.30176090947978873,-0.08900750012300253,0.1297858545055131,0.4838663062291123,0.16281692288733063
233,134.906,0.043791802751504905,-0.2502965900092841,-0.03607631629348784,0.12388179696176718,-0.2680364105466662,-0.07811985982594172,0.1418721490638603,0.4986885033890959,0.1543917437405781
234,134.912,0.04456137045843562,-0.25181570881367266,-0.036518503778794675,0.1326407720151285,-0.23833652424949903,-0.06927596860966424,0.15585014663552035,0.5108266826382791,0.1462168982277847
235,134.919,0.04552898114586036,-0.2533601864179323,-0.036968964042630274,0.1438194243917424,-0.20294279125293546,-0.059426963914700016,0.1698370838693164,0.520360842344062,0.14073138089060333
236,134.926,0.04657800001691279,-0.25465482691574787,-0.03735125032675328,0.15590025305281202,-0.1669544938384621,-0.04979768869223815,0.18213482618617918,0.5281491676883074,0.13981513521236416
237,134.933,0.047714164854350816,-0.25569573424408637,-0.037665691244975555,0.16871827192924857,-0.13044759997232105,-0.0400425736569195,0.19131493571525302,0.535470019761461,0.14439769224398066
238,134.939,0.048760684636742595,-0.2563831785743336,-0.03787958412526103,0.18012165553466375,-0.09870051011008887,-0.03125505310490264,0.1962922357930178,0.5436307218180104,0.1542948803816196
239,134.946,0.05006872511247975,-0.256942264647091,-0.0380596122828214,0.19360419467568477,-0.061038367820485696,-0.02018156334087888,0.1965181571840913,0.5536463384152065,0.16832846380729732
240,134.953,0.05147064879635209,-0.2572350238517419,-0.03815848300189062,0.20694542928755394,-0.02260711922256975,-0.0080672135360207,0.1921753638117826,0.5660384410205697,0.18462007635530436
241,134.96,0.05296448394981456,-0.2572555041152883,-0.03816863559716197,0.21986461455856054,0.0167556153521754,0.00516647202992211,0.18422185559683674,0.5807849484933105,0.2009400301885308
242,134.966,0.05431531205190025,-0.25705098257134606,-0.038100922003107544,0.23041141946998686,0.05141823262856635,0.01740472598821958,0.17426974317970495,0.5974161455394678,0.21504483580536124
243,134.973,0.055968866510907996,-0.256545381725161,-0.03792622701980459,0.24203271167474433,0.09303915199563659,0.03250812638401785,0.1643136875899162,0.6151988909639109,0.22498894289983176
244,134.98,0.05770160775150876,-0.2557441219268294,-0.03764408237621643,0.2530362142128443,0.13589221895702608,0.04810462892715409,0.15627059634385126,0.6333144563647705,0.2294112430727605
245,134.987,0.05950982840696314,-0.25463858693007374,-0.037252433785520345,0.26359825877375154,0.17997492297293358,0.06379496841450413,0.15145192025457144,0.6510240578322576,0.22772285870915954
246,134.993,0.061118048510409695,-0.2534423305189709,-0.036830137814602454,0.27247510904174743,0.21877721406132858,0.07697035522478832,0.15027701769384563,0.6678867862852045,0.22011565938090125
247,135.0,0.0630617317824596,-0.25174847702685754,-0.036239984612083886,0.2828629686864022,0.26518092654214825,0.09164484549468147,0.15237066510004085,0.6840737268297746,0.20742193048727614
248,135.007,0.0650790154817958,-0.24972574718482676,-0.035549917056008185,0.29350380255209824,0.3127418854662299,0.10551731338394948,0.1576473581127328,0.7016028708739018,0.19674893867535773
249,135.014,0.06717068774821025,-0.247363958799345,-0.03476274418640502,0.30411684499445835,0.36205479609950464,0.11938922078822138,0.15156096895840238,0.735116400035985,0.20740560089762852
250,135.02,0.06901512422607027,-0.2450532988462824,-0.034005879345644405,0.3106953142921934,0.40816518825466463,0.13289905946530806,0.07204475769085353,0.832200748876853,0.2518011168937401
251,135.027,0.07117972811141672,-0.24196895319633666,-0.03300794163597689,0.30776293866600485,0.47307642601849625,0.1522260004406497,-0.15747878536444704,1.0589718669078811,0.3112844562459534
252,135.034,0.0732535560602797,-0.23835874426513026,-0.031863151754899025,0.2847593324372767,0.5584118400397368,0.17485682272422018,-0.5127255068749069,1.4272539964801414,0.3480588693415467
253,135.041,0.07508446654556306,-0.2340568414674824,-0.03055775961604176,0.2383579490718826,0.6707032450016286,0.19811235980616027,-0.8391671480468901,1.8443278954521287,0.32948536505693304
254,135.047,0.07635478156231926,-0.2296791356818558,-0.029318848199354923,0.1850803898468351,0.788532016873851,0.21485811242276964,-0.9717658829421311,2.160735738993814,0.2397118163321834
255,135.054,0.07743129515784182,-0.2236281072543894,-0.02777549353901899,0.1224949231593899,0.9403332481153173,0.22610036195861036,-0.8516459764273638,2.261955022344018,0.08782830144016468
256,135.061,0.07812197842029686,-0.21652030071469094,-0.026193472666608573,0.07484315182762262,1.090468620368501,0.22590560158690007,-0.5366764179750708,2.1122013555970844,-0.09350259597383474
257,135.068,0.07856427139919543,-0.20842391594743992,-0.024654975392379173,0.051526270714735325,1.2227841702729976,0.2136650481926147,-0.1426550593641584,1.7427789720203108,-0.2631228540823333
258,135.074,0.07888003638794039,-0.200825155771486,-0.023430431761683513,0.053728725533577965,1.3101358883782137,0.19451616203925712,0.2175176889349958,1.2263531340917968,-0.38775813495255174
259,135.081,0.07933832008915176,-0.19142832133492596,-0.02216946243466521,0.07720947481296499,1.3746739506479175,0.16576078853860554,0.46658804629760015,0.6539471073600948,-0.45002245273168784
260,135.088,0.08000359908223334,-0.1817134865675836,-0.0211169263209025,0.11287023749592107,1.4009931257336319,0.13496381539338245,0.5723793215579034,0.11285545112814517,-0.44723962803423783
261,135.095,0.08092768507525215,-0.17193264205443487,-0.0202722954600259,0.15115433193783798,1.3935338780211493,0.10635928771404593,0.5430181584870384,-0.3301787605290498,-0.3861461045136054
262,135.101,0.08191895826664622,-0.16365674785343606,-0.019692829587317686,0.1792700651935057,1.3650975223116808,0.08679600318868376,0.41265080953182776,-0.6363883379693288,-0.2788205091401034
263,135.108,0.08325047849299437,-0.15427305695722618,-0.019135749557256096,0.20116428519141039,1.315957019460653,0.07236971968594304,0.22523179339254507,-0.7953078754891146,-0.14148563888133142
264,135.115,0.08468845366842355,-0.14525545457686068,-0.01864539483740312,0.20968576493091728,1.2605008034990752,0.06773162884337805,0.023039379434081252,-0.8203950538361949,0.006356026612057109
265,135.122,0.08613986363891382,-0.13661952478648484,-0.018153046888349483,0.2050027980660083,1.2069077080351132,0.07293921374327561,-0.15947644334787295,-0.7410263275420037,0.14536565204167978
266,135.128,0.08732942584262221,-0.1294958900338182,-0.017679593677196546,0.19151793650531884,1.16763720953159,0.0848785233084449,-0.2988812887608772,-0.5937991396565432,0.26045793247241333
267,135.135,0.08858800909319606,-0.12144372026014509,-0.01701312168399882,0.16807727794409533,1.13298272580194,0.10554204617648404,-0.3840564134603342,-0.41585054352856016,0.34156861854943316
268,135.142,0.08966855288527248,-0.11359167141899112,-0.01618736807848227,0.14064951979180365,1.1104598002404464,0.13038755539950364,-0.4150444343542198,-0.24034923814954173,0.3822990550044994
269,135.149,0.09055517820087315,-0.10585858046599173,-0.015183039544087763,0.11267199895106597,1.0989947577578045,0.15656345442729291,-0.4000736113660002,-0.09368189619395548,0.3803291915066678
270,135.155,0.09116473703291221,-0.09927236667680574,-0.014180145175904385,0.09051427839527969,1.0964098386374423,0.1777346683004873,-0.3530792850796242,0.005819098318295929,0.33929180965728994
271,135.162,0.0917208651548942,-0.09159097148028486,-0.01286290696203017,0.06837947074231744,1.0982745032240986,0.1986191070918765,-0.2918127787734442,0.04850743627535665,0.2691710713286965
272,135.169,0.09213631761789297,-0.08389314919272574,-0.011418116768630596,0.05032123297153428,1.1011032932197922,0.21417809102199245,-0.23430944501697976,0.03390865005939876,0.18413601927104453
273,135.176,0.09243702341521069,-0.07618497243535917,-0.00988488193822472,0.03559470911953187,1.1012329231780258,0.22388900338115197,-0.19474413020425638,-0.030131913770858026,0.0987889743139798
274,135.182,0.09261737540695816,-0.06959173800712454,-0.008530652646656207,0.024522621462955668,1.0965118862334333,0.22752076047500164,-0.1816021129598478,-0.13033868337809437,0.024656412025886174
275,135.189,0.09274348369256259,-0.061962047498895,-0.006938841766082636,0.01150831728114066,1.0833996875448764,0.2272823482599796,-0.19756637203483024,-0.25168193349333107,-0.03160249205530879
276,135.196,0.09277150645349876,-0.05445418360706532,-0.00535985112176441,-0.003501814156528704,1.061704281547785,0.22385783583061986,-0.23975003899117583,-0.3804082734311494,-0.06816981782355026
277,135.203,0.09268204470458792,-0.0471287306145706,-0.003811490388314534,-0.022058685532264713,1.0312822877349241,0.2185309451547428,-0.30089974969369615,-0.5059288786278898,-0.08702780466070428
278,135.209,0.09249034142027203,-0.0410405389404452,-0.0025161555621106145,-0.04184240923969516,0.9981149369734662,0.21324733024654732,-0.37155971089103285,-0.621447298471551,-0.09256512150658308
279,135.216,0.09209970109093225,-0.034215308174805864,-0.0010453784082312004,-0.06976911342873246,0.9519509960649516,0.20697471371869927,-0.44207780443981326,-0.7235275300808404,-0.09018598624299992
280,135.223,0.09149766224813435,-0.02773600586445568,0.0003823997888876549,-0.10224198451339994,0.8992782354623483,0.2009619140292536,-0.5040111420445847,-0.8110801261689106,-0.08499542314877234
281,135.23,0.09065522332846296,-0.02164469943990223,0.0017692653846095813,-0.13845484967923155,0.8410950287016039,0.19528539903547965,-0.551041593044149,-0.8840729954647062,-0.08038841606216973
282,135.236,0.08972474069719026,-0.0167593175611739,0.0029271096768747557,-0.17170602741165653,0.7873655975411112,0.19066269838623062,-0.5791839081012892,-0.9422194068164202,-0.07673967726391825
283,135.243,0.0883827938539878,-0.011479154702740083,0.004243998905214762,-0.2117073563602019,0.7212523620103289,0.1855913668535024,-0.5862447681691659,-0.983973112129835,-0.07101229374480986
284,135.25,0.08676194133817176,-0.006669379999965783,0.0055276770074849345,-0.2513933624440475,0.652968981638489,0.18117380522342763,-0.5699970556025227,-1.005446031928858,-0.057692255284139245
285,135.257,0.08487080817678741,-0.0023392783963789715,0.00678529851944982,-0.288930397951098,0.5842029050997162,0.17814662676628287,-0.5236350499300553,-0.9980363437687909,-0.03050382906802649
286,135.263,0.08305285553111469,0.000994427875821064,0.007852794952106204,-0.31705381727311777,0.5270325189669203,0.17768551745249853,-0.4322951716379185,-0.945215977625152,0.01483047429399332
287,135.27,0.08074777265368507,0.004471283071480183,0.009107489362275173,-0.3415412905634432,0.4663546797921182,0.1807985997383793,-0.281141214904681,-0.8226176330882401,0.07586839654157072
288,135.277,0.07831421491727375,0.007563949774528468,0.010398949878029353,-0.35376091984211927,0.41726437822463347,0.18819011904976382,-0.07487461629781868,-0.6076159785834011,0.1394816628979569
289,135.284,0.07584713967995513,0.010375970431051129,0.01175518609566246,-0.35111771939127057,0.3861700950669811,0.19930594313084693,0.1518835978372212,-0.29830815475265693,0.18437508099012415
290,135.29,0.07378462042521718,0.012673042110067092,0.012984129585350928,-0.3363886988546889,0.37952046460497746,0.21034188676529358,0.34876377024399796,0.07228362167209958,0.19074260732838844
291,135.297,0.07152899628594173,0.015391420761404501,0.014497475602341565,-0.3080753409378379,0.3971591500622989,0.22204268951743644,0.4761388043742695,0.44161505079749624,0.150157343277563
292,135.304,0.06949227755442469,0.01831344427144608,0.016078089689483197,-0.27384429663804,0.43770470994898353,0.22956133537984946,0.5211740773298629,0.7396696572222267,0.06889651630919418
293,135.311,0.06769745396605821,0.021575919952825606,0.017688991288054352,-0.2389624428948744,0.49443119901592963,0.23069626421158046,0.495099974116005,0.9130423601160246,-0.03583064972944113
294,135.317,0.06634447234443909,0.024705979901886648,0.019057411313087826,-0.2120314309781483,0.5489221173377119,0.22544374413289384,0.42029967533020685,0.9391334023098177,-0.14270534637818078
295,135.324,0.064949166554423,0.028760631727394854,0.020590481057715118,-0.18662736616902176,0.6095498328066615,0.21257618290316185,0.3198413749952181,0.8272398668175125,-0.23218781954852052
296,135.331,0.0637068751308734,0.033200247441171254,0.02201577516354056,-0.16831304056062055,0.6589117997051246,0.19465070447689817,0.21374190365352633,0.610908646068517,-0.29006649407171686
297,135.338,0.06256856211457049,0.037926498406055456,0.023306343591024584,-0.15691924981141037,0.6914456188322529,0.17408313194684444,0.11821332932473826,0.3369560063314943,-0.30916456794200536
298,135.344,0.06164145664464445,0.04210973042134283,0.024297983194410806,-0.15211590683058884,0.702965052930152,0.15646340251521665,0.04505489447650326,0.05459578413377379,-0.2897395577151466
299,135.351,0.06058224427562362,0.047013818341813715,0.02532974019365682,-0.15051619860371812,0.6982029243462425,0.13832431155486238,0.0015522030941559,-0.19333920485647652,-0.23873830345460764
300,135.358,0.059527555277775784,0.05183275430408056,0.02624913093651963,-0.1508235150668779,0.6786359220147299,0.12435875783432483,-0.010505791094123333,-0.37674049562369777,-0.16814459803214055
301,135.365,0.05847089761249926,0.056480068938389576,0.027088334381167516,-0.15107867501191294,0.6491682592154692,0.11541365492204204,0.003071770155420909,-0.4817924619463373,-0.09246872957941157
302,135.371,0.057567336177759325,0.060287449138906234,0.02777040547490188,-0.1501084699013866,0.6199584742900347,0.11194337632273663,0.029906025881836468,-0.5110639135890849,-0.02548791546265287
303,135.378,0.05652679374010436,0.06450799694823416,0.028553689796352026,-0.14718936942959823,0.5859123283791197,0.11185214409234008,0.05514123350113697,-0.48086199997915535,0.02282988733460109
304,135.385,0.055510821459212406,0.06850154686328024,0.029345177346231172,-0.14308842511075287,0.5551019330618007,0.11428715587296909,0.0643387496543873,-0.41679113240104493,0.04811356956533829
305,135.392,0.054522413385446875,0.07229541409040491,0.03015717663073056,-0.13931388167919623,0.5288601318301885,0.11771263969811856,0.045631625595467136,-0.3477571582732395,0.05168704168597779
306,135.398,0.053689907016286814,0.0754114173876777,0.030871471440822904,-0.13818824137414573,0.509807633927372,0.12038563033265408,-0.007370503294088152,-0.299847542034401,0.039169354553152964
307,135.405,0.052710437643967115,0.07890897444758205,0.03172108200200983,-0.14166015071699703,0.489494383187442,0.1223602442920072,-0.09378270375998274,-0.29197391847353565,0.018360527410375225
308,135.412,0.05168279617062987,0.08226027012339138,0.03257949220033312,-0.15195169880772166,0.4680186670431103,0.12289981237161532,-0.20605896608991592,-0.33371567974564137,-0.002640346873764641
309,135.419,0.05055447930561184,0.08544524254056067,0.03343745917882258,-0.1704245483400563,0.44197345214746553,0.12223361005376954,-0.3321428672817956,-0.42510511738476553,-0.01676929040138784
310,135.425,0.049462209250518016,0.08801031532397371,0.03416770921742289,-0.19366547002453832,0.4130508089901844,0.12118306947965941,-0.4578286209253952,-0.5579911542703528,-0.018939151458985375
311,135.432,0.04798322016206366,0.09074837070233117,0.03501291200793518,-0.22890284096383298,0.3692507276859931,0.1203034420960878,-0.5688033347784982,-0.7181132181806399,-0.006688571524166747
312,135.439,0.04623418307597974,0.09314027617850501,0.03585657627153407,-0.27082204077407224,0.3141508369346155,0.12074349036056516,-0.6525020275509804,-0.8872082656037085,0.01950926723216787
313,135.446,0.04417603742351771,0.09510725661642336,0.036710952507390635,-0.31721957421465974,0.2478435738987947,0.12336400559827905,-0.6992784607781308,-1.0446371959897267,0.0568387863178511
314,135.452,0.04214921606599552,0.09639911556112832,0.037465208481455056,-0.3583875449593777,0.18277607433617565,0.1280546524231845,-0.7000431133481464,-1.167042278741419,0.10259883423912776
315,135.459,0.039479612686203466,0.09739114808348132,0.03839271085467282,-0.404356277837807,0.1006617891930479,0.13694602563884412,-0.6392443782562072,-1.2253368034722998,0.15644909215056674
316,135.466,0.036512914917363345,0.09780653894438206,0.039396147400599636,-0.44327165611590696,0.018021313921362983,0.14975013034004156,-0.494545397867201,-1.182372696032799,0.21659528374853657
317,135.473,0.03331976902676269,0.09767056750762029,0.04050291547061274,-0.46905574119791366,-0.05687029585326893,0.16646931823490377,-0.2566674477015354,-0.9995755526287404,0.2705140580858383
318,135.479,0.030486898730172667,0.0971830298048467,0.04155139640152768,-0.47523435766539096,-0.1056422717379267,0.18302432540339628,0.04665293484624175,-0.6582102656563319,0.292199582436728
319,135.486,0.027208526111255422,0.09634247277135491,0.04289813382005658,-0.46144353345695593,-0.13451688068910034,0.2017577941775794,0.35513926617423613,-0.18304421694389297,0.253595327117964
320,135.493,0.024094005389609617,0.09542137177761455,0.044357921898931556,-0.42841952986978055,-0.12865483180795864,0.21532451407211428,0.6070067874046199,0.35383353938289436,0.1416676509785365
321,135.5,0.021259870144962046,0.09466571950731309,0.04587830158669128,-0.38133339717180376,-0.08724581684944493,0.21906968243035335,0.7648358674103174,0.8526077153774428,-0.032553111114948345
322,135.506,0.01911177112928178,0.09432473615800116,0.04716882467615959,-0.33469960805492427,-0.02641529958785884,0.21110468072573296,0.8202718270921442,1.2150544411382476,-0.23818160137164998
323,135.513,0.01696171901284211,0.09445068777854654,0.04856539682605071,-0.27960099664168564,0.06240147688651133,0.18791593352858724,0.7850123834967135,1.3726000432985292,-0.4374167265014671
324,135.52,0.015180509245277871,0.09520915009182565,0.04975636578137699,-0.2293160798048758,0.1543020411930785,0.15236091085010547,0.6800260441234333,1.3048998254203357,-0.5984699328705292
325,135.527,0.013720571220123377,0.0965711785057557,0.05066659103217358,-0.18780907024066093,0.23484893421680614,0.1077034465212202,0.5292702588766085,1.041813680910197,-0.7026140787523326
326,135.533,0.012671978624204275,0.09812958957538513,0.051185051451689056,-0.16172179506569279,0.2846214223263188,0.0651166933172648,0.3574503227344128,0.6499800886071133,-0.7449326779197143
327,135.54,0.01160549574571834,0.10022554964084106,0.05146357498752485,-0.14298759878721376,0.31422431066066125,0.014461459778619505,0.1883657824730783,0.21249263097810317,-0.7308948338375146
328,135.547,0.01063227558813567,0.10242776842471207,0.051396354055730155,-0.13507530337906476,0.3149810561591778,-0.033667440291376825,0.04215695779990988,-0.19044504086567796,-0.6713285865663349
329,135.554,0.00968376486541546,0.10455016854959742,0.051010557363154914,-0.13592776025508702,0.29141897952191526,-0.0765601861586134,-0.06699307486687543,-0.4960301465179775,-0.5783407957174344
330,135.56,0.008850694627964376,0.10619598152364726,0.0504592577765826,-0.14176231889526403,0.2571853451613439,-0.10720634269881826,-0.13132672649841534,-0.667589586369742,-0.46333862726607505
331,135.567,0.007824576191356144,0.10783221007670787,0.049612756984876126,-0.15141437727830684,0.21030852714135673,-0.13465102636000126,-0.14988357126704863,-0.6981547378520487,-0.3362553410007462
332,135.574,0.006731072235109564,0.10914734585363636,0.04860518782130282,-0.16101532450620706,0.16544455198080066,-0.15322587751788128,-0.12983761582519038,-0.6089459150001046,-0.2049182841229272
333,135.581,0.005578025095457703,0.11017928224323896,0.04749898751733027,-0.168426715395427,0.12939441647807226,-0.1628313521896187,-0.08609139704566016,-0.4413657322086481,-0.07493480890999471
334,135.587,0.004556551919695576,0.11089518213214457,0.04651974035559104,-0.17206434319193586,0.10923887982378823,-0.16358436839011165,-0.037553537650310706,-0.2437318513794706,0.049339381300739046
335,135.594,0.0033472116718780242,0.11162354078747354,0.0454002155402746,-0.17346144189854618,0.09886359312719563,-0.15627986455721507,-0.003150582414260923,-0.058549521729161606,0.16347550401808195
336,135.601,0.002132613493834636,0.11231874005913499,0.04435742076140965,-0.1735666089707453,0.09976477020450679,-0.14166150083255638,8.65661687523714e-05,0.08480508962909296,0.2624268530456962
337,135.608,0.000912770232420583,0.11304791249646681,0.0434382732691372,-0.1749600371473065,0.1085702118901508,-0.12095206838795688,-0.040683746261858604,0.17173924320737785,0.3409372619632792
338,135.614,-0.00015194697573600612,0.11373219114366873,0.04277745454927055,-0.17994569890487644,0.11952267051047688,-0.09932083823424989,-0.12878159129207165,0.20054074436315394,0.39431994118309527
339,135.621,-0.001457306952343127,0.11461443688869039,0.04217994711578505,-0.19301429441117723,0.1325475423526758,-0.07139557133291505,-0.2519686578112396,0.1789356267637155,0.41927569913138174
340,135.628,-0.0028844914731525205,0.11557819017606029,0.041780378827084734,-0.21475271153572803,0.14281053975393315,-0.04276679686755663,-0.3813746675160648,0.12007422591764114,0.4148164574432516
341,135.635,-0.0044910658346213874,0.11659687220460285,0.04157685855894826,-0.24426853459790596,0.14824146840087704,-0.015381851171394501,-0.47856142722305406,0.03815451673410168,0.38303706021036876
342,135.641,-0.006043738309019772,0.11748477594412242,0.041547424167720504,-0.2732889568682027,0.14772644477230165,0.005570387428809737,-0.5078584093264871,-0.055660448204935875,0.32914085308327884
343,135.648,-0.00807150843738861,0.1184934393673287,0.041657239601018636,-0.3060739369510512,0.14046310471500328,0.025805450656348167,-0.4473237544625175,-0.15595514084631792,0.26040263388071194
344,135.655,-0.010302985391228621,0.11942626927208837,0.0418912963784852,-0.33149090700278244,0.1260597252161391,0.041067914334052436,-0.2931932868662339,-0.2636837047724031,0.18426541360873533
345,135.662,-0.012665535210376028,0.12023081277920543,0.04221368648254156,-0.3435233270388515,0.10380984824571365,0.05104354396769961,-0.057368250051804306,-0.3845608747559065,0.10637205130800248
346,135.668,-0.014710702299218002,0.12077332465445596,0.04253194771633235,-0.3381990359084473,0.07702744350445884,0.05504353396255913,0.23834378299472295,-0.5257875364838746,0.02958977034225071
347,135.675,-0.016981366335882906,0.1211661971372971,0.04291532956364221,-0.31056211742391915,0.03522183730721295,0.05449413669732426,0.5668508985882091,-0.6922083044496031,-0.045596321734403034
348,135.682,-0.018979331160933838,0.12122354386472929,0.04327691482282213,-0.2602849754496859,-0.01883705804081643,0.04881593735442604,0.8979610103686573,-0.8827840396145995,-0.11983659056540576
349,135.689,-0.02054928741733558,0.1208549349024888,0.043580982080862134,-0.18827395495049132,-0.08647978831353237,0.038060422085513745,1.2000619929474043,-1.087969924646317,-0.19352264653841414
350,135.695,-0.02144562790125838,0.12012626847428394,0.04376882079078034,-0.11050620635709686,-0.1564090210880815,0.024552481220552737,1.4433058099683553,-1.2889624893974345,-0.2656195635931632
351,135.702,-0.021853387155444888,0.1187012153105998,0.04386940409620026,-0.005996437696108151,-0.2507490256785247,0.004185606042260526,1.601560061977548,-1.459609859551662,-0.3277642314636213
352,135.709,-0.02150653541128306,0.11658253041261565,0.04381639653896701,0.10509693602798854,-0.35458951660222465,-0.019330622394605708,1.6351174906166412,-1.5657567735457267,-0.35737518011203495
353,135.716,-0.020398943119195042,0.11372583371183632,0.043598202893570207,0.21135800456836212,-0.4616095407627153,-0.04301041914729298,1.4607720636376562,-1.5522447621589577,-0.33252975327996664
354,135.722,-0.018914331748773067,0.11070119189138848,0.04328813902653985,0.28351245223894367,-0.5466043993865254,-0.06034420319615516,0.9917966073009017,-1.3367764164564677,-0.2566549342827766
355,135.729,-0.01677951125044746,0.1066116680081081,0.042816123822055296,0.32643626156793704,-0.6218309958356031,-0.0745172837993358,0.2587778011424271,-0.8549315848640343,-0.1562742108285365
356,135.736,-0.014529423963103503,0.10213992450140941,0.04226797098095018,0.3164458205324867,-0.6558100060825836,-0.08209781365979375,-0.5498467925333641,-0.13503834799039674,-0.06458262350569634
357,135.743,-0.012524719785059816,0.09761522817676654,0.04168411512487588,0.2563268017653004,-0.6369603723858828,-0.08471814521845739,-1.2017057259003612,0.6842176933963159,-0.01176007860130696
358,135.749,-0.011229770447946461,0.09397887610525908,0.041173437225331906,0.1753229772724679,-0.5751569847832242,-0.08550782129619357,-1.5516580457181992,1.416512851783272,-0.015081438047638682
359,135.756,-0.010378428506299248,0.09035218219016868,0.040564405033569825,0.06791757748370494,-0.46104127667043604,-0.08850137634999042,-1.577571312164643,1.9082196544448364,-0.07213503688940368
360,135.763,-0.010254074795269219,0.08760443715079846,0.03991659429319128,-0.03238794576086494,-0.3240287345776365,-0.09658740661517554,-1.3448049250824787,2.0836063613622686,-0.16344942482584174
361,135.77,-0.010757299199783752,0.08582071922367825,0.03918949616712587,-0.11139045552889895,-0.18560495888491937,-0.11115491511765074,-0.956913362813346,1.9493355910772405,-0.2609712781072202
362,135.776,-0.011555819204628167,0.0850180478195622,0.03846970230009223,-0.15478287941922952,-0.08195217582042255,-0.1287763738935549,-0.518018575899294,1.5738785226276741,-0.3379916288964793
363,135.783,-0.012714849772916793,0.08476050132367889,0.03748250751836274,-0.17636871152148617,0.008367462710659662,-0.15327927803010027,-0.11087922311111142,1.057561470536859,-0.375894331479602
364,135.79,-0.013937346380298574,0.08500678116429988,0.03632045127365104,-0.17291603344448728,0.06199820603814529,-0.17873679188728944,0.21147213206273174,0.5049567718933083,-0.3658039434423272
365,135.797,-0.01507134826244052,0.08550208855456191,0.03498835901142032,-0.15108450431012307,0.07951819117947836,-0.20186099732121765,0.424583988291419,0.005483596670605051,-0.30791397636316
366,135.803,-0.015893953742287855,0.08594627940305777,0.03373137736773972,-0.12311732230564477,0.06854542498580184,-0.2171328839056328,0.5260356424175807,-0.37845384963419326,-0.21118570206642825
367,135.81,-0.01662914088114945,0.08630654434372552,0.03217498077041202,-0.08693614594037502,0.03438741520490905,-0.22755185818767962,0.5280938474182201,-0.6167311896975247,-0.09236849787630422
368,135.817,-0.017119842136510223,0.08638792752506871,0.03057441704910304,-0.05326421273403112,-0.01113507767829966,-0.22975206218598726,0.45292947294732894,-0.7095552116781071,0.028266106763974185
369,135.824,-0.01739872984145161,0.08614305476714108,0.028985598490556753,-0.026417988677737543,-0.05882856744383005,-0.22419609739834243,0.3292285249789877,-0.6799826388182778,0.13360553245579296
370,135.83,-0.017511647843935125,0.08568025098611651,0.02767113052813928,-0.011221345483432564,-0.09543935956435794,-0.2139598900741316,0.18731358995677547,-0.5644379710239043,0.21432868647423375
371,135.837,-0.0175612848680403,0.08489586295372555,0.026231472921839385,-0.002960661403807992,-0.12867150683381098,-0.19737085458435769,0.0533593667949392,-0.40377229648594815,0.26898869771563233
372,135.844,-0.01758213070075291,0.08391831889909628,0.024918357460891768,-0.002995290799790054,-0.15062679448863897,-0.1778049914004074,-0.0543682855528968,-0.23588949729137346,0.30105781398630466
373,135.851,-0.01762481117736058,0.08282472574040027,0.023747795440944127,-0.009199131088107949,-0.1618283937099961,-0.1566413000129654,-0.12637904372478612,-0.09046628377407362,0.3155410212771389
374,135.857,-0.01770537239280503,0.08184699461475796,0.02286375243339499,-0.01765460739337385,-0.16408198150409348,-0.13803970250340225,-0.16102716550621465,0.013865616740401373,0.31673733098255047
375,135.864,-0.017867838548194265,0.08070848443543577,0.021972459883944508,-0.028764294146374433,-0.1612066411591589,-0.11661531162512498,-0.16265076886900579,0.0699067023326626,0.30745691849573953
376,135.871,-0.018105473402692623,0.07959807637628824,0.021227831143133053,-0.03913137856739323,-0.15605280431133473,-0.09613575717799616,-0.1393916330000289,0.08024904031778295,0.289209758769591
377,135.878,-0.018408297380338005,0.07852187972056382,0.020621196220196057,-0.04738975790300519,-0.1514319544681009,-0.07718850651886876,-0.10121417561350188,0.05437825976501214,0.2628136323313687
378,135.884,-0.01870669951912676,0.07761856769702172,0.020201485570756024,-0.0520776216932422,-0.14967205337925496,-0.06271504329447017,-0.05812884809105336,0.005441729352775694,0.22914720459724733
379,135.891,-0.019080451554711757,0.07656518818110883,0.019812809883500346,-0.05470867418810991,-0.15129352259564163,-0.048335153064215125,-0.018526205800681407,-0.052682827889716274,0.18980728707770989
380,135.898,-0.01946419772284439,0.07548686298081346,0.019514967784733616,-0.05493308813542119,-0.1567993917742431,-0.03676258944050381,0.011987961786637698,-0.10772928833746567,0.14735644871682138
381,135.905,-0.019843581792148166,0.07435822705043489,0.01928795271924153,-0.05346236023700833,-0.16566801690511682,-0.028098857842902156,0.030861326295918978,-0.15065587831307614,0.10505919628195758
382,135.911,-0.02015826389629919,0.07333535022797472,0.01913447794216451,-0.05143167447999541,-0.17529092391492704,-0.02305940118276982,0.03816278003372623,-0.17643193148299283,0.06623465908258742
383,135.918,-0.020509390019381048,0.07206501729364023,0.01898503739821087,-0.04889007497189173,-0.18766134303752388,-0.019637897089667743,0.03588608354650779,-0.18397712396372684,0.033450003674670846
384,135.925,-0.02084403919301798,0.07070821718432717,0.01885253940992699,-0.04672397463859135,-0.19999583105164462,-0.018218670991413482,0.02722270584782691,-0.17538508765832606,0.007898792390193178
385,135.932,-0.021165928101602012,0.06926859028623411,0.018724666439368317,-0.045244284957154865,-0.21132613983346213,-0.01831646345404354,0.015887681533372337,-0.15472061413893584,-0.010747951237371493
386,135.938,-0.0214355061978223,0.06797578933551722,0.018611696847575146,-0.044615080449604994,-0.21960751040548665,-0.019340067143678818,0.00549931972087339,-0.12676764712677707,-0.02404489136213118
387,135.945,-0.02174727540940332,0.06641176999941663,0.018469314973760743,-0.04446183714490895,-0.22725515705150554,-0.021340468231836177,-0.0010346145114802055,-0.0960446179036843,-0.03423629212504857
388,135.952,-0.022058875460406368,0.0648014927456309,0.018310583340064253,-0.04456674885589826,-0.2328240583155149,-0.02401142710998587,-0.002021961849290566,-0.06620392230716061,-0.04358142422479815
389,135.959,-0.02237074270857436,0.06315899140713518,0.018130826898562026,-0.04453817919203648,-0.2364620383972113,-0.027347556176328027,0.002854331833266564,-0.03978771402980921,-0.05361585856187571
390,135.965,-0.022636591922261577,0.0617350941935555,0.017956304511534103,-0.04407822537036554,-0.2381703661293319,-0.03082657283297765,0.012779747139366627,-0.0182792688209615,-0.06463779777164934
391,135.972,-0.022940452294862444,0.060065428774276675,0.017723652874943173,-0.04273902394410548,-0.23887689652142036,-0.035645323335812155,0.026237550197764015,-0.0023053167725741544,-0.07575528834356145
392,135.979,-0.023231503052367118,0.05839399690775719,0.01745476993382446,-0.04041833534288487,-0.23867506534094796,-0.04117837412662181,0.04137512957183692,0.00818561754434638,-0.08544875733115048
393,135.986,-0.023502699972909966,0.05672590855546751,0.01714517707918762,-0.037066499098187745,-0.2379216067434136,-0.04727672719848562,0.05627977791319588,0.013766209533252683,-0.09222522837925208
394,135.992,-0.023714016625650775,0.055300945176692616,0.016844990880163675,-0.03337238514874631,-0.2370661861815327,-0.05278533914282529,0.0692851516479113,0.015309997662233838,-0.09501546864230842
395,135.999,-0.023929778254653953,0.05364497488166031,0.01645287174837177,-0.028273794566403082,-0.23606818382735978,-0.059248698511924214,0.07926100492775305,0.013766550370323902,-0.09329288389964176
396,136.006,-0.02410788381234313,0.05199535508129465,0.01601646534362152,-0.02261350763046818,-0.23525175913392082,-0.06543884570234391,0.08565003389155712,0.010019778103237611,-0.08705550040853613
397,136.013,-0.024245294083587974,0.050350372916384674,0.015538714262234382,-0.01664656986803008,-0.23474314512573602,-0.07106146326531232,0.08819519977084357,0.00479856333371524,-0.0767580506865847
398,136.019,-0.02432973869307764,0.048942218154534874,0.01509998956103733,-0.011501633295191572,-0.23464177549084714,-0.07518010380036597,0.08668397483136725,-0.0013529546603869593,-0.06323676694748656
399,136.026,-0.024390101307853514,0.04729860876637668,0.014560407603789577,-0.005744828069331826,-0.23496090683972848,-0.07898616969888209,0.08103910013323425,-0.007944857068858419,-0.04765200746327102
400,136.033,-0.02441197503853947,0.04565120631165014,0.013998014177029639,-0.0005048092695332327,-0.23572550879800047,-0.08169766651878065,0.07162753205195571,-0.014331629026205397,-0.03134677164238323
401,136.04,-0.024399769765318886,0.04399703833646654,0.013420502682861976,0.003992030189697563,-0.23689391268269172,-0.0833056175290052,0.059386756626137585,-0.019709524817371708,-0.015500477351875309
402,136.046,-0.024366552749389234,0.0425718683031093,0.012919238156744624,0.0070803084535192564,-0.23816276510303683,-0.08378255784343921,0.045585490567402055,-0.02341945467936648,-0.0007109816898295149
403,136.053,-0.02430773818295498,0.0408988757589145,0.01233425391060847,0.009723853384827202,-0.23983510466656435,-0.08335579819534211,0.0314335273236954,-0.02530373865012623,0.013144516895802523
404,136.06,-0.024233743454241778,0.03921389346203437,0.011755532945322273,0.011417497676072504,-0.24158840872741458,-0.08199304902916783,0.017910373899136377,-0.025778334982094902,0.02655883793188518
405,136.067,-0.024150961704982803,0.03751661156847667,0.011189547925844586,0.012234430683618146,-0.24334927514586768,-0.07971695653576973,0.005890764178306926,-0.02552406604029757,0.03975454543250773
406,136.073,-0.024077367819420676,0.03605205414014881,0.010719358636032829,0.012296864503756867,-0.24483653429673208,-0.07701280673481034,-0.0037686048905202977,-0.02502867626090785,0.05216096771279954
407,136.08,-0.0239930017767465,0.03433227017234327,0.010194019059896135,0.011807719117418746,-0.2465303136473571,-0.07308421501842341,-0.010482523136679075,-0.02431915988304452,0.0622975656405625
408,136.087,-0.023913317482101504,0.03260087199307688,0.009698113270307398,0.010959222209798943,-0.24815488043040948,-0.06860315343597566,-0.014238221245162143,-0.02301218548122514,0.06825703855914599
409,136.094,-0.023840162603278526,0.03085855699287156,0.009234349256812938,0.009942171739609007,-0.24964940534218288,-0.06390085041948923,-0.015393288865373913,-0.020530422611165354,0.0687433792763626
410,136.1,-0.023783119481263597,0.029357405665273156,0.008862663919840835,0.009072202265366666,-0.2507343705239336,-0.059994261904540554,-0.014177443723984984,-0.016348130267091913,0.06404367559451671
411,136.107,-0.02372259182099561,0.027599066891682587,0.008457142116654647,0.008221414954046298,-0.2516481362158695,-0.055869110434287564,-0.010610030994548105,-0.010274203759461593,0.05614157683987485
412,136.114,-0.02366690317855038,0.025835971686536133,0.008078551558058153,0.007689625744579204,-0.25209335096847196,-0.05229962059320484,-0.004883514113449719,-0.002697016282977617,0.047854613531824124
413,136.121,-0.0236133826552803,0.024071643415066686,0.007723199249671495,0.0076019523325750234,-0.25200044087958123,-0.04922961037433929,0.002329171265801338,0.005403928397007379,0.04158936344482956
414,136.127,-0.02356669201647976,0.022561243383280614,0.007434882794110117,0.007961593934271828,-0.2514662363824243,-0.04687587481278296,0.009895241137917588,0.012753971162879341,0.038415380327890825
415,136.134,-0.02350780363106541,0.020804703663820097,0.007115915177483879,0.008863659041313171,-0.2504022548936876,-0.044257729937875905,0.01638619928536256,0.018244862390745364,0.037863613297158455
416,136.141,-0.023441348422550936,0.01905664223238899,0.006815272515930719,0.010123543391379585,-0.24904386837198683,-0.04164017336296558,0.020320214950036407,0.02133138788548327,0.038398240354873714
417,136.148,-0.02336556941151917,0.017318561312492372,0.0065329851603946375,0.011527602617681347,-0.2475506801695487,-0.039013356790142964,0.020586698108252983,0.022172275516015194,0.03813340101153834
418,136.154,-0.02329309910490142,0.015837110623130108,0.00630539451242541,0.012629166254901267,-0.24626621628452042,-0.03685019253292985,0.016856045241748604,0.02148734610224894,0.03539372113561126
419,136.161,-0.023201508081280527,0.01411826659377264,0.006055186062857501,0.013539697636763886,-0.2448320778172623,-0.03463793591499294,0.00967205797281842,0.020295918089676207,0.029059820023713708
420,136.168,-0.023105542629560168,0.012409240934979145,0.005818474481863994,0.013879002854747899,-0.24346096755195873,-0.032993944368818036,0.00021351436792614408,0.01965103526202437,0.018837460937200713
421,136.175,-0.023009580187944873,0.010709818491126679,0.0055904347671243415,0.013538837606744965,-0.24208830211982754,-0.032160259842464636,-0.010124143467354765,0.020341227484761956,0.005451728435107208
422,136.181,-0.02293101175769796,0.009261081922841972,0.005397125006091583,0.012650639142224826,-0.24082388730838955,-0.03227632716845236,-0.020066202353087016,0.022636915286994897,-0.009396919571996204
423,136.188,-0.022848292305616656,0.007581187734254228,0.005167248382442386,0.010983490023940994,-0.23914588086114313,-0.03340270816010941,-0.02850576865752925,0.026251381277130288,-0.023419907833337986
424,136.195,-0.022778971264060557,0.0059139869061927315,0.004926487408840652,0.008822521849216381,-0.23719721287037276,-0.03538614144033694,-0.034453496585168816,0.03052257140567712,-0.03436692282970681
425,136.202,-0.022725821199326486,0.004261437616343681,0.004669778646349298,0.006363210931935357,-0.2349597270861615,-0.037959219271425815,-0.03719790956063943,0.03466601517907211,-0.04059905378782268
426,136.208,-0.022694154279428357,0.0028580896598828986,0.004434786857006217,0.00419242903410787,-0.2328229250674149,-0.04037137717626486,-0.03658814030781393,0.037965040235588395,-0.041391497006415694
427,136.215,-0.022673180041641625,0.001237680514177264,0.004142770954281135,0.0018002103335256316,-0.23015111656243553,-0.04306173788798476,-0.03310855094849915,0.039877429778635634,-0.036991486893517556
428,136.222,-0.022667873750561715,-0.00036376697049461757,0.0038334714935379915,-0.0002841271678378516,-0.22740530762920372,-0.04530953660999303,-0.027618098864550265,0.04012102413433904,-0.028497564544804357
429,136.229,-0.022675697610585216,-0.0019461262179551449,0.0035107711556867645,-0.001951261410304119,-0.22469733450205245,-0.04689055991886313,-0.020953438742658724,0.03877509306745237,-0.017565152630901203
430,136.235,-0.022690463541349848,-0.0032876812275170904,0.0032273474420265744,-0.002970715511239861,-0.22248766868524578,-0.047584011301196626,-0.013698357094373729,0.03633264222124133,-0.00600563461834525
431,136.242,-0.022713655603733826,-0.004836696403361679,0.0028940871962259748,-0.00365558802706161,-0.22008809584326017,-0.04763320178500761,-0.00625523171159075,0.03357831009882807,0.0045724822221607855
432,136.249,-0.022739885548195848,-0.00636951819634308,0.002562760489385192,-0.0038386818192247827,-0.2178609878653988,-0.047031571598005605,0.0009208400440403254,0.03130792170334631,0.012955862232194864
433,136.256,-0.022765778535432813,-0.00788716869894275,0.0022373009199933495,-0.003559314534188367,-0.21575344144848327,-0.04595687679959723,0.007218455668161258,0.030094914037532502,0.01835510090892752
434,136.262,-0.022785438752808997,-0.00917636581067175,0.0019649775236474224,-0.0029940912578723536,-0.21397892912783406,-0.04481758864904166,0.011993788958902766,0.030221718745634986,0.020369919036909455
435,136.269,-0.022803185438527846,-0.01066677682431102,0.001655979407396787,-0.002076390376080723,-0.21185278905451008,-0.043467587422505345,0.014743195836137191,0.03172283850662207,0.018962027769895896
436,136.276,-0.022814120382923693,-0.012141792527157667,0.0013557161904313767,-0.0010478794513016643,-0.2095802689013738,-0.04232190313897919,0.015222211741616502,0.03448646562110662,0.014417196197669464
437,136.283,-0.022818001937759846,-0.013600103086404797,0.0010620677234660062,-6.113621617475371e-05,-0.2070798908849144,-0.04157765885140739,0.013526304684342622,0.03836142014934343,0.007266174272493572
438,136.289,-0.022816285255446718,-0.014835384214391976,0.0008130868812315599,0.0006333636538840516,-0.20468048511079676,-0.04141595522673819,0.010080121229324092,0.0431956788300074,-0.001769780680077658
439,136.296,-0.022809976210071966,-0.016257095896134447,0.0005215498611388963,0.00116922073890144,-0.2015228525296193,-0.04188033622824905,0.0055319404115596925,0.048801153674327205,-0.011759843212471418
440,136.303,-0.02280105097114049,-0.017655297455512413,0.00022438357487734515,0.0013808475272323888,-0.1979633072923715,-0.04302431698927631,0.0006337529359078066,0.05490530316131174,-0.021569749054771173
441,136.31,-0.022791776130045207,-0.019027100403053495,-8.29805824174222e-05,0.0012691070714184387,-0.1939803920048007,-0.044794013666308745,-0.00388928306273487,0.061135933800136294,-0.029989919334424704
442,136.316,-0.022785165742805303,-0.020179669735309363,-0.0003575637591253113,0.0009343553418828191,-0.1902093854138072,-0.04673371190298414,-0.0074891091349271535,0.06704261820261584,-0.035941472006326323
443,136.323,-0.022780709704591583,-0.02149441159185619,-0.0006936622640944805,0.00033879843346476643,-0.18543114502787494,-0.0492944323738527,-0.009862291872629004,0.07217021582702794,-0.03866447602359586
444,136.33,-0.022780829924869673,-0.022774606013929305,-0.0010479138383318964,-0.00037314708434720316,-0.18033868984989623,-0.05192030312247952,-0.010880062049351368,0.07619718728281728,-0.03783960899232832
445,136.337,-0.022786010706158023,-0.024018324839427316,-0.0014199406409449455,-0.0011070761409009804,-0.17500954600786692,-0.054373069053032956,-0.010502776754819637,0.07906608063223867,-0.033621110608631634
446,136.343,-0.02279435090800216,-0.025054253122264242,-0.001751492536153268,-0.0016729911404780667,-0.17029988160442872,-0.05614422934973704,-0.008732979919718045,0.0810179576967875,-0.02658158506909788
447,136.35,-0.022807770828643277,-0.02622670407145126,-0.0021498087060792272,-0.002161271899837574,-0.164686103877337,-0.057660390629027156,-0.005492957417530764,0.08253804699937586,-0.017591393158913043
448,136.357,-0.0228236130538327,-0.027359467546249995,-0.0025564613698498035,-0.0023650781542809045,-0.1589606032077844,-0.05852608473391162,-0.00044488663852697166,0.08427297757646972,-0.00763038724764331
449,136.364,-0.02283937105275707,-0.028451621202951704,-0.0029667663344137398,-0.0021372072526778733,-0.15308329870676657,-0.05870390514141492,0.007083848147965349,0.0869608135175804,0.0024496343182338525
450,136.37,-0.022849979278129116,-0.02935438163194596,-0.0033177023221973184,-0.001398867871337446,-0.14783684429130745,-0.058274757453106854,0.018012706446464594,0.0913690074188562,0.012137327532756734
451,136.377,-0.02285361198719947,-0.030366467910967466,-0.0037215997843410755,0.00036095099409405216,-0.1413306640003448,-0.05712451744502702,0.03325917438163939,0.09818692193106693,0.02137462632592987
452,136.384,-0.022840652739279654,-0.031331021864428134,-0.004115251050728108,0.0033416912687235035,-0.1342561798464825,-0.055347272951644315,0.05358394518196357,0.10792639778816086,0.030404945797903038
453,136.391,-0.022801202026773108,-0.032243336802919104,-0.004494288096475731,0.007929940875996171,-0.12640523115075136,-0.052949025833313484,0.08009355521009952,0.12080902142010273,0.039467381896033916
454,136.397,-0.022736515573887114,-0.03297903798840763,-0.00480418188195926,0.01363221008600141,-0.11882849734541537,-0.05034890266119221,0.11372965693013258,0.13672825533718982,0.04891220991568475
455,136.404,-0.022609148944322185,-0.03377562744470226,-0.005143611390904442,0.022758255503952326,-0.10876849016717187,-0.04663095703736169,0.15215538515703406,0.15636752815772184,0.05940920241538997
456,136.411,-0.022408746205693483,-0.0344962166522907,-0.0054543326955853256,0.03449966981849346,-0.09711414057223555,-0.042146558585684564,0.18992777312354198,0.18317902137544465,0.07124262063103916
457,136.418,-0.022117539326511445,-0.03512724869534856,-0.005730812113194611,0.04870229566202923,-0.08318072887273976,-0.03684756073119761,0.22386216514795534,0.22276743039775673,0.08314235150472482
458,136.424,-0.021783262994512904,-0.03558210607505994,-0.0059364226805382805,0.06272314833748077,-0.06843839769771293,-0.03168929505002286,0.2527141946164567,0.27833237347771805,0.09218988669331958
459,136.431,-0.02128130423598096,-0.035986222521600664,-0.00613573370310205,0.08069363981439988,-0.04702344417098327,-0.025256711396727582,0.2708515629316287,0.3455869211325532,0.09522182309517473
460,136.438,-0.02065163728052755,-0.03622449760745126,-0.006290258992890205,0.09921120460146296,-0.021055151786556182,-0.01889337140003582,0.26865303816267366,0.4109927579485942,0.0901724901430886
461,136.445,-0.019896153686634586,-0.036267878452206456,-0.006402547570202783,0.1166412507963728,0.00866062471365123,-0.013189079260677788,0.2391669817770723,0.45476893000764484,0.07602062923010512
462,136.451,-0.019159243603474933,-0.03613542682020689,-0.006470358783452958,0.12899544359016843,0.03548991928620299,-0.00941465848937949,0.18075870789252765,0.4571732919387126,0.05227397260634107
463,136.458,-0.018223150828010168,-0.03578349905525274,-0.006527683293250415,0.1384596351138586,0.06506087070062326,-0.0069637728813107674,0.09497813609113646,0.40436895350258467,0.019131964270806302
464,136.465,-0.017244294930267072,-0.0352445018136237,-0.006576784294004732,0.14121347852682653,0.08893834119327801,-0.007065084477055573,-0.01474559962816829,0.29129515467583605,-0.022083652177765447
465,136.472,-0.016274718773413112,-0.03457229108614528,-0.006637158981425412,0.13580828057410688,0.10312186665756072,-0.01018482621455516,-0.14273348570724267,0.12193829884142249,-0.06880924010880558
466,136.478,-0.015497290694295817,-0.0339508800753498,-0.006714694661833094,0.12333441246498134,0.10401513694092698,-0.015660400588004324,-0.2812600326068627,-0.09157555915742463,-0.1173084920236065
467,136.485,-0.014718334105283051,-0.03327351126861431,-0.006857971552173395,0.09922461296707848,0.08951880784050385,-0.025275853794909528,-0.42117292281145413,-0.33077134976699385,-0.16283532312510335
468,136.492,-0.014140698486926286,-0.03275553610292476,-0.007078503843660103,0.06581413513540676,0.058474096642720325,-0.03773337234436079,-0.5522329608573826,-0.5737085169673838,-0.2001113522575035
469,136.499,-0.013826086033527167,-0.03251104280436529,-0.007393596805126027,0.02407513726427747,0.011381131517080471,-0.052293188074410475,-0.6638222632172277,-0.798333198912182,-0.2240852236822714
470,136.505,-0.013806077594137987,-0.032600176692087444,-0.007747491817024465,-0.017405657467884236,-0.04109242742446423,-0.06567181589173096,-0.7461323673025435,-0.9852714279326191,-0.23066156607501836
471,136.512,-0.014112617852959478,-0.03314070566790738,-0.008261023993705466,-0.07017727362390765,-0.11334442280969226,-0.08105166315987879,-0.791355420677645,-1.1197723181894046,-0.21742642285193653
472,136.519,-0.014794408794313055,-0.03421196177823087,-0.008876669515663686,-0.12462013819126053,-0.19272875156822833,-0.09484705739948668,-0.7948237701866879,-1.1930701701360644,-0.18449892487778993
473,136.526,-0.015853053756337165,-0.035848921552586475,-0.009578991075351952,-0.17784985095826927,-0.27497404110446894,-0.10581624536844628,-0.7560105475458332,-1.2031256921813234,-0.13508561269771108
474,136.532,-0.017046818527276485,-0.03770682116639198,-0.010232447160906606,-0.22007173935482172,-0.3443258301640093,-0.11200244981643008,-0.6791342571377526,-1.1541790979198752,-0.07518681971578979
475,136.539,-0.018737479244864814,-0.040382294100839815,-0.011026877689237024,-0.2629741799577458,-0.42009500825221574,-0.11497770113587756,-0.5708175788414085,-1.0533368832462557,-0.011496380516630666
476,136.546,-0.020698563158533932,-0.043557716095671745,-0.0118267661582275,-0.2973355096616019,-0.4871684188419734,-0.1135618614326662,-0.4302911354007931,-0.9008300949838153,0.0527465148121008
477,136.553,-0.02286065643860351,-0.04715733323373522,-0.012601091724871215,-0.3204054275006938,-0.541293620604,-0.10767401475109424,-0.24184512895846236,-0.6760940697990568,0.118794420065697
478,136.559,-0.024803603826619135,-0.05049476576674767,-0.013220279638415038,-0.3272437018378225,-0.5711838904001074,-0.09872195643017181,0.009408488613103377,-0.33989235424674596,0.18549088024657687
479,136.566,-0.027056105371631316,-0.05451837905977273,-0.013860047037982177,-0.3163281681651981,-0.5784199076062299,-0.0840687291603087,0.3086128445089999,0.12907280960488965,0.2414272174539669
480,136.573,-0.02916050451039895,-0.05846861701746391,-0.014387453568694962,-0.28492872862512436,-0.5502195088761596,-0.06661885104323687,0.6062019434170153,0.6925387274658046,0.26697060055901006
481,136.58,-0.030980834848257973,-0.06208617992695682,-0.014792177122378389,-0.23516565361993905,-0.4833698938353622,-0.04901645000908786,0.8436327534512108,1.2551080236309233,0.24587093435094345
482,136.586,-0.03223069358739131,-0.06472511475184854,-0.015049070875597296,-0.18145392609115635,-0.39627504779517575,-0.036614801063877746,0.9820578928204746,1.7052928621687877,0.17566781555208646
483,136.593,-0.033261240003731124,-0.06705933244359476,-0.015276086686235178,-0.11298790714977652,-0.2706442927059757,-0.02824685911859128,1.0126823801170264,1.9549276467896497,0.06813007218777703
484,136.6,-0.03381644776489152,-0.06848344264991242,-0.015472541978667341,-0.045642881753079984,-0.13624433767020694,-0.02788322443341521,0.9493980273221942,1.9607813010212074,-0.05753566692849427
485,136.607,-0.03392393388316158,-0.06899360384393784,-0.015696408772154634,0.01493256224737008,-0.009516003479809243,-0.03607871656290802,0.8154523256935591,1.7314168994799723,-0.18123793872210164
486,136.613,-0.03370635890999393,-0.06878130696321745,-0.015954097178903035,0.05759242880850957,0.08028163038660052,-0.04981741901988922,0.6345795935020168,1.3208532052077095,-0.285747982633328
487,136.62,-0.033175406028719955,-0.06796312593865075,-0.01638020388456691,0.0941083944125196,0.1534843766322868,-0.07192735402684522,0.42930389675303426,0.8118904285403512,-0.3584194229228202
488,136.627,-0.03243834963413965,-0.06675563765613188,-0.016973825318985773,0.1164791468959881,0.19151227551571554,-0.09767877009270963,0.2224623605010453,0.296042858227929,-0.391841619062422
489,136.634,-0.031591805581354174,-0.06539681412074835,-0.017750774488455037,0.12539058247209897,0.19672302030944544,-0.12430670689925107,0.037170077724639504,-0.14422911686008658,-0.3839566346482314
490,136.64,-0.03084557268177557,-0.06426887132914237,-0.018560293349353052,0.12335371738742541,0.1792579102258695,-0.14553291340007718,-0.10640422274097959,-0.4494194135954471,-0.3375335956487376
491,136.647,-0.030018346031925297,-0.06313924919700109,-0.019650686078882176,0.11299675399819831,0.1434912703856926,-0.16600786646516394,-0.19534330540776815,-0.5926326586544,-0.25899902150601
492,136.654,-0.02927801025453675,-0.06227590705856386,-0.02086270362396537,0.09852775382694952,0.10317791202476867,-0.18028286070121538,-0.2262073820262967,-0.5818869162082876,-0.15689935171278255
493,136.661,-0.02864011154000466,-0.06167783801590807,-0.022148349606719887,0.08372902175351798,0.06769895730533348,-0.18704456294267044,-0.20494996159609843,-0.4517835222743409,-0.040101145513960275
494,136.667,-0.028168807080900804,-0.06133344898263402,-0.02326678487240122,0.07337246461442777,0.04709738711934535,-0.18576719228442654,-0.14707501258264166,-0.24847498210745972,0.08351966452041193
495,136.674,-0.027682248166554884,-0.06103565238165178,-0.024532296340401123,0.06564436805573612,0.03798735601837561,-0.17580751285814478,-0.07808114045596344,-0.01694348687497943,0.2066530951091582
496,136.681,-0.02723559582716286,-0.06074714820499881,-0.025699564607734496,0.06197058605617932,0.04444240873955776,-0.1576977063797237,-0.028953575769518437,0.20500982731532297,0.3209715700315708
497,136.688,-0.026808127537526386,-0.06036481178315831,-0.026714839139086677,0.06016321098322162,0.06479656892952051,-0.13238073115044147,-0.023703843225718814,0.3880035197510877,0.41663214725260195
498,136.694,-0.026455038767212804,-0.059896703016497306,-0.02742964043648383,0.05753304578796814,0.09123968662414353,-0.10588636798193393,-0.06569689318795206,0.5108123414118991,0.48392557526244423
499,136.701,-0.026076196274103368,-0.05912936519934687,-0.02805072649635871,0.050707666528935984,0.1279996897043962,-0.07156679198219079,-0.13315881795928777,0.560181119445971,0.5159666552930203
500,136.708,-0.025759746533952264,-0.05810232136346825,-0.0284283713264214,0.03970654494274291,0.16544140626071524,-0.036331730892787455,-0.18735609753712737,0.5306738923876108,0.5105980035100268
501,136.715,-0.02552693169523552,-0.05682951813721851,-0.028564832141712296,0.026811980404850243,0.1982166583818061,-0.0026570734760118023,-0.18832380299344417,0.4242248496778667,0.470504686042517
502,136.721,-0.025392361165317057,-0.05558077757907794,-0.0285037972296831,0.01804486290130318,0.21803019433169973,0.02300204415241018,-0.10967525898819513,0.24924794513969348,0.4016625891711055
503,136.728,-0.02527279118666551,-0.05402227137042584,-0.028257164524712247,0.01611798814197213,0.22725729385429747,0.04746444298206903,0.053536246632012056,0.019581282915937775,0.3110432592551118
504,136.735,-0.02511928795049023,-0.05245867354622488,-0.027862925382578577,0.027740079336647794,0.2194849416313705,0.06517531191318464,0.2850704625082829,-0.24602681362130924,0.20495846060125236
505,136.742,-0.02482435581851643,-0.05101480076995333,-0.027371393281268773,0.05652624408471898,0.19305013730473825,0.07526243131865752,0.5536072204391483,-0.5241445737745813,0.08892723082844475
506,136.748,-0.024363868392795085,-0.04997226176147816,-0.026914715892468646,0.09696956448905708,0.1544628655203034,0.07696336494804502,0.8210830969929535,-0.7874576479978348,-0.031111577525586017
507,136.755,-0.02346085733173708,-0.04910662823149722,-0.026397114062002854,0.16103359581304547,0.09286100018836113,0.07092287232779046,1.0454063718570505,-1.007297232819868,-0.1448766584527771
508,136.762,-0.022067946202455294,-0.048716423304303674,-0.025946574327997535,0.23694101255289482,0.01862612186685693,0.057802765959351445,1.166137157709843,-1.155517309832346,-0.23737434668672777
509,136.769,-0.020137448111572497,-0.04886848299047719,-0.02560687697782983,0.3146298705560814,-0.06207174648783147,0.039253619802780484,1.0973082158196668,-1.1955948248526673,-0.3030503696772472
510,136.775,-0.01808384750603255,-0.04944116178865922,-0.025429380507450017,0.36990366462387564,-0.1288211862395045,0.01991187032382186,0.7814779163046967,-1.0732547058797275,-0.3543861480244448
511,136.782,-0.015368649848077344,-0.05056124636968897,-0.02538124397796057,0.40586709479134286,-0.19120297976876666,-0.006158576183989867,0.2663075927250081,-0.7442231871598375,-0.40516976579185326
512,136.789,-0.012532298973358492,-0.05201659794545899,-0.02552774031263962,0.4045188694167548,-0.22461175616691456,-0.03569751943873552,-0.30558780053130163,-0.2291331256704408,-0.455439929956716
513,136.796,-0.009831688917695907,-0.05357184188589208,-0.02589174720604602,0.3670840036291466,-0.21974365538507887,-0.06830445010587577,-0.7850676158758291,0.3709640197745793,-0.49455480880632313
514,136.802,-0.00779397227243446,-0.054776384143319735,-0.026390039211923347,0.3121548781246431,-0.1817704304241263,-0.09779288518656053,-1.0820030455121556,0.9197664186167549,-0.5077730360976839
515,136.809,-0.0058796964767172675,-0.05578141807016694,-0.027193519283771173,0.23478106350844963,-0.10538212010344138,-0.13177284962693955,-1.1722636180314079,1.3057878246957013,-0.4822246969378365
516,136.816,-0.004506504334251477,-0.05618496408910614,-0.02822349791406139,0.15755954862435306,-0.009916742450533186,-0.1625067590271981,-1.077565831053546,1.4755719858946335,-0.41320003745119216
517,136.823,-0.003634575130349234,-0.05590470858490733,-0.029447490954955958,0.09156308106182391,0.08998974365013697,-0.18720553837100024,-0.8452246824531631,1.4351784043463551,-0.3063926979094193
518,136.829,-0.0032068729190360174,-0.05512918963144253,-0.03061322206658405,0.05100432270924297,0.16851657417145233,-0.20137149883834887,-0.5333894332261432,1.233991003532054,-0.17511595412255526
519,136.836,-0.002937948584091776,-0.05368807174476314,-0.032048152938948825,0.02583120156048534,0.24323139345093722,-0.20860875040843746,-0.20002313153463908,0.9428064984380089,-0.03573955340355975
520,136.843,-0.002768506688233182,-0.051796150176537346,-0.03350120030424868,0.022580768684989278,0.2973176260439537,-0.206547639678623,0.10532258575318502,0.6329823093956674,0.09578949705903464
521,136.85,-0.002556138932929019,-0.049595517525950934,-0.03491076393197032,0.03809573283044248,0.3314345598374283,-0.19618482538441448,0.3467019994719171,0.3610059913550692,0.20612849573743092
522,136.856,-0.002252557259472737,-0.047560983581889524,-0.03604447419629727,0.0630981583216476,0.3467434215163493,-0.18171859605788973,0.5031439550998673,0.15935049051931838,0.2855864570930191
523,136.863,-0.0016823561608711225,-0.04511058767203951,-0.03724276603510938,0.09981644127869732,0.35336969558315434,-0.16065050074532441,0.566634000442647,0.03370434083929438,0.32822721052903214
524,136.87,-0.0008507924888200073,-0.042636851841441906,-0.03828798914600473,0.13777317930716582,0.35341197030136956,-0.13798467379599222,0.5392260326818547,-0.03247267753749205,0.3321359672072419
525,136.877,0.00023016914434382878,-0.04017500835182407,-0.03917794793127702,0.17107300159656663,0.34997188387465294,-0.11628926485305033,0.43095592953990364,-0.0677533768443864,0.29995432554385426
526,136.883,0.00131742063757345,-0.03809012516425914,-0.03982813714600212,0.19134416281329336,0.3449891786469623,-0.10044047338864129,0.25807179541292513,-0.10161146666114089,0.23875466153492877
527,136.89,0.0026928002473429087,-0.035706205760319465,-0.04048343372736791,0.20162143997929521,0.33613065105236717,-0.08678712128792443,0.04135409462921765,-0.1564795108060385,0.15903232414060894
528,136.897,0.00408565161346742,-0.03340142894562764,-0.04106305442580605,0.19633609319885237,0.32237701028768234,-0.07881879255142732,-0.19534134614991547,-0.24422935991433933,0.07312293308619733
529,136.904,0.0053852390567502096,-0.03121812231105669,-0.04160680221695761,0.17497460488167924,0.30142488530357303,-0.07653771920604982,-0.42702025300278385,-0.366205541303401,-0.006664433849866698
530,136.91,0.0063417483100626434,-0.029487379722174013,-0.04207277946746746,0.14386181288912006,0.2754893109906307,-0.07878803096389272,-0.6305203611912574,-0.5153586460232732,-0.06982487894103923
531,136.917,0.007178392092367021,-0.027702437156241714,-0.04264577115356981,0.09517926776910271,0.23449427927537564,-0.08492387935094853,-0.7878333687480493,-0.6790213108784433,-0.10894152336326926
532,136.924,0.00764329666996014,-0.026243636791836805,-0.04326777540370823,0.0376506115431222,0.18230582484001523,-0.09279162068847355,-0.8882495873783519,-0.8414762067775238,-0.12028314524773569
533,136.931,0.007688621911363453,-0.02518706642029635,-0.04394422525423687,-0.024700542570756254,0.11957142417132738,-0.10047976517671482,-0.9283356339862731,-0.9862748067444383,-0.10370901424857647
534,136.937,0.007378126106268799,-0.024653618662732316,-0.04456172957145522,-0.0787980591274579,0.05824449501667773,-0.10535500722939299,-0.9104681898373431,-1.0982606582936505,-0.06200309786167476
535,136.944,0.006616244636260819,-0.024517657757732084,-0.04530657532484624,-0.1388823608755505,-0.019398522159338703,-0.10745806516875404,-0.8400728569681737,-1.1638491542541378,0.0007310327872294001
536,136.951,0.005456865939657293,-0.024933488755794223,-0.04604882232435758,-0.19236869529664868,-0.09941033442975941,-0.1046125061200471,-0.7182380682293771,-1.1672749086554632,0.08217361569706909
537,136.958,0.0039599222077889695,-0.02589984063570122,-0.04674926181376642,-0.23532951380828093,-0.1766902026863289,-0.09551306228233716,-0.5334145934586917,-1.0842546512864208,0.18293639602831085
538,136.964,0.002476905917375642,-0.027133467570305495,-0.04727973418113325,-0.25900924966280947,-0.23451877551507988,-0.08131106017326487,-0.27147242553786044,-0.8813697916085801,0.29979733088392946
539,136.971,0.0006376978470560668,-0.028944869308589034,-0.04776299936422941,-0.26647877042812224,-0.28302457827984767,-0.05676470642553872,0.05384981332188048,-0.5318345941830761,0.41535452300264175
540,136.978,-0.001174566185541628,-0.030995415035875218,-0.04805048845417191,-0.2513109531708491,-0.30284562951578614,-0.02537503355797318,0.3880607344700268,-0.0456467573465872,0.49917571537184635
541,136.985,-0.0028074493833100253,-0.03305940112530586,-0.04810516438152014,-0.2152271033340738,-0.2868646817496899,0.009753340029919538,0.6632331713926725,0.5112476583703044,0.5242806298594177
542,136.991,-0.003966623805771847,-0.03464426657905874,-0.04795772409531198,-0.17116437081985197,-0.2414238028345827,0.039393422039465845,0.8344829197026605,1.0333123736863594,0.4832017761115368
543,136.998,-0.004957415457552864,-0.03603991016403481,-0.047577072490946455,-0.11191895826138594,-0.15733150715991448,0.06936417920819048,0.8916173011726565,1.4166955487787778,0.3899887096106125
544,137.005,-0.0055317949585341605,-0.03677958967057777,-0.047012151645497546,-0.05218947059029566,-0.05400549470935179,0.0920417766342396,0.8485863265711296,1.593681883167587,0.27071739800973904
545,137.012,-0.005707510882166886,-0.03678047371904661,-0.046317124797084025,0.001984920980981207,0.053752909432539756,0.10653732291233901,0.7297709709547667,1.545832167919162,0.1516067035828118
546,137.018,-0.005581464573781496,-0.0362066812631542,-0.0456599974143109,0.040030515147480766,0.13751124253159047,0.11250513801202897,0.5634193358437874,1.3011588398509923,0.051242556857458266
547,137.025,-0.00518798016868208,-0.034977053922865695,-0.044868834036368425,0.07239360059512913,0.21381085469344518,0.11354154139994575,0.37947103366859847,0.9218112048723096,-0.021047204347651127
548,137.032,-0.00461088277454129,-0.033311201895234226,-0.044084146625347195,0.09249136915926434,0.262146867486635,0.11065486174881774,0.20607240774603494,0.4864463927245192,-0.06305548256453772
549,137.039,-0.003930903600948349,-0.03140904222220452,-0.04332640143022753,0.101788394725083,0.2813273248093867,0.10584376542895382,0.06479409802445912,0.07237141597281092,-0.07711460085203627
550,137.045,-0.0033173149172241135,-0.029737512754012922,-0.042704169901383024,0.10274116651632097,0.27584916458778996,0.10156674418587394,-0.03240886993134795,-0.2585770424812356,-0.06826366264194363
551,137.052,-0.0026120192465977432,-0.027893936004000027,-0.04200656234453902,0.09877188223392654,0.25088704970123266,0.09774970062655547,-0.0832352311164571,-0.46868790780510644,-0.04294494316026344
552,137.059,-0.0019417772525051169,-0.02625975405498963,-0.04132843312017572,0.09272583036382988,0.2160220785871188,0.09600150633424766,-0.09291497221036221,-0.5470942724818544,-0.007988258648321755
553,137.066,-0.0013124001406221407,-0.02487421999905133,-0.04065376198085009,0.08709620160260623,0.17984479453782698,0.09676167633008073,-0.07110284838570931,-0.5069218157051255,0.03013562063031574
554,137.072,-0.0007986292126625933,-0.023873276935601356,-0.040064738137395035,0.08416077438390308,0.15380289327881885,0.09957960482159706,-0.028673909178563578,-0.3782564819808714,0.06564729169673485
555,137.079,-0.00020999676794847928,-0.022866048280134874,-0.03934858377198993,0.08401992410572362,0.13397672256854162,0.1050359281511434,0.024570271685364974,-0.19937402414836752,0.09332131865709795
556,137.086,0.0003908260469025136,-0.021953215376347795,-0.03858908471169479,0.08764373728015168,0.12683267851329413,0.11196380336159859,0.08100861536505381,-0.008765905833325066,0.10852058630244417
557,137.093,0.0010302502218431492,-0.02104713644087356,-0.03777927397876321,0.09504888413206976,0.1320470173373531,0.11941069176248259,0.13473847904662037,0.16068435837249634,0.10844263765881597
558,137.099,0.001628286978828514,-0.020215412322624533,-0.037044936981172304,0.10429670152971099,0.14519435541231218,0.12536830743447716,0.17959983212117178,0.2862007680454133,0.09405993872198505
559,137.106,0.0024052646804557172,-0.019121455755477065,-0.03614761190793576,0.11769692750647422,0.1673646637724557,0.1310102849186392,0.21081238748064812,0.3597255999986529,0.0703176588166536
560,137.113,0.003282152665601391,-0.017859809517241223,-0.03521680921376378,0.13284249682068205,0.19310569000895578,0.13493334198745027,0.23044997207557158,0.39023273691650695,0.043979623969102224
561,137.12,0.0042692973972108085,-0.016413160433365846,-0.0342644126378105,0.14919885506752145,0.22022261966942747,0.13717996542757696,0.2460884190548701,0.3998122008247865,0.021475185926662952
562,137.126,0.0052094363287630676,-0.015019935233835578,-0.03343872260011742,0.16418078878321973,0.24418578017397774,0.13805004713677205,0.26315560466705046,0.41470857519792437,0.008099361589395592
563,137.133,0.006424347462237188,-0.013206074048868758,-0.03247050000807873,0.18293667792342375,0.2740602726733149,0.13858497915979856,0.2832925166206355,0.45567726354607174,0.007485748602628216
564,137.14,0.007775993957700818,-0.011169179289058844,-0.03149706556017455,0.20324803506747685,0.30790965870289344,0.13953914881375476,0.3084737744492304,0.5305161002775083,0.020313744713770007
565,137.147,0.009276824762087,-0.008874355137531133,-0.03051263958318607,0.22556076618541196,0.3477543845902696,0.14172541603989577,0.34160204488674956,0.6303499851221996,0.04338260204042051
566,137.153,0.010694072110351123,-0.006667634119698931,-0.029652206007800642,0.24685501656927752,0.3878192880204364,0.14508577575523593,0.382201033767863,0.7314777348489523,0.07083784073191664
567,137.16,0.012518705701436872,-0.0037685131282768802,-0.02861645197561677,0.27446886659770686,0.44050099524241476,0.15084394772565887,0.42232155413814565,0.8033905789101716,0.09692505399240144
568,137.167,0.014544226181009218,-0.0004900593753722972,-0.0275347189420768,0.30425127042254985,0.4962000770153681,0.15822263328553957,0.44538130419404065,0.8193881848562097,0.1180510973182011
569,137.174,0.01677886076639378,0.0031736210780869676,-0.026397008465397755,0.3342157539725829,0.5505657668293881,0.16683750290824118,0.4276264012190248,0.7645425389450924,0.13294096630904456
570,137.18,0.018852229596296406,0.0066009197065231215,-0.025371762332989337,0.35690718932826565,0.5918671093159533,0.17491120789455192,0.3436677497119549,0.6393124127650137,0.1414886294690049
571,137.187,0.021413243688471806,0.010875979705486049,-0.024113096479455507,0.3748111227213255,0.6295786046725816,0.18470760740057118,0.1779588547728175,0.4594025366855074,0.14392701067641456
572,137.194,0.024050720854893508,0.015368411993659953,-0.02278594470314743,0.37875378197311027,0.6539734776671139,0.19447861440300526,-0.0630904673069377,0.25133596349006915,0.1407488252531925
573,137.201,0.02665246739588854,0.019981743673793968,-0.021391791764822487,0.36460237259636724,0.6641212880845199,0.20385079654669405,-0.3492072920628459,0.04431794533415289,0.13230734854380383
574,137.207,0.0287529542374195,0.023958232259201923,-0.020146579439719862,0.3355599079139265,0.6613749070514152,0.21121997848749777,-0.6379617779879078,-0.1376689208832116,0.11817512817024371
575,137.214,0.0309182367933035,0.02853770803748406,-0.018642138158619814,0.28309225090963147,0.6470467438854024,0.21862038754078025,-0.8906702364179886,-0.27977851576153107,0.09743393166676735
576,137.221,0.03266302927559485,0.03298822037867881,-0.017091708454664737,0.215419886887541,0.6245282107407603,0.22435952787463914,-1.0809470996911714,-0.3762932939543547,0.06977448110429801
577,137.228,0.033897620546756026,0.03726316059985652,-0.01550846578134938,0.13732047630111438,0.5968832810234276,0.22799552164371106,-1.1944596202786097,-0.42913479288505535,0.03615928451303702
578,137.234,0.03450790809654835,0.04076718952819845,-0.01413744877970509,0.06610870696298488,0.571126361757172,0.22901014557103483,-1.2260669046858041,-0.4463568128537244,-0.001671668887459071
579,137.241,0.034681804171028806,0.04465855282886863,-0.012539662066653615,-0.01642411425431954,0.5406917241477981,0.22750034387191764,-1.1785061209723078,-0.4403487130423961,-0.042316024568836104
580,137.248,0.03429761131921975,0.04833940837144122,-0.010962490156844886,-0.09334527197720795,0.5109812880193172,0.2231202017892267,-1.0625724976369526,-0.42525738452784584,-0.0852983153420722
581,137.255,0.033408806531580466,0.05181544440489559,-0.00942659244719583,-0.16059895306240451,0.4821718643955075,0.21570771525304722,-0.8968466162194173,-0.4140979399214994,-0.13066261892699732
582,137.261,0.032303816942145736,0.054635167120396816,-0.00815959146948087,-0.2077309100824911,0.45773570743819847,0.2066259439852568,-0.7051940745392277,-0.41650024115318285,-0.1780316945504239
583,137.268,0.030703450068498263,0.05773672049376837,-0.006761726134145091,-0.24951676810217413,0.4284223992387553,0.1927641518246804,-0.5122264081988906,-0.4375356339030934,-0.22582813993700457
584,137.275,0.02885461931987359,0.06062574379078576,-0.005472072934441912,-0.2787205886473549,0.3970128284799086,0.17570819094739323,-0.33861957153817995,-0.47757432453835147,-0.27109299819083976
585,137.282,0.026839108274352957,0.06328343566896105,-0.004311918600882477,-0.2971397100724141,0.36232770814106124,0.15576447578363703,-0.1980169069169219,-0.5329679485641586,-0.3099621360800582
586,137.288,0.02503031606142455,0.06535764710307956,-0.0034345692295551207,-0.30579102757036614,0.32907610323174874,0.1366853146588041,-0.09604605029244562,-0.5972720725545465,-0.3385488615535952
587,137.295,0.022874498653917122,0.06750980635810298,-0.002560953618442047,-0.3101568031481027,0.2858265410627138,0.11291914566005207,-0.031149725103437782,-0.6627930631057191,-0.3538725055458886
588,137.302,0.020700065235071077,0.06934421058927526,-0.0018556223370513334,-0.3111098879503232,0.23828895355756025,0.0886040775942935,0.003381838670111006,-0.7222026141750647,-0.35454089806263006
589,137.309,0.018524732294759535,0.07083299700079221,-0.001318951991473407,-0.3104138092811018,0.18707859258983756,0.06473030685643305,0.016898238601679147,-0.7697983958592665,-0.34101541868871144
590,137.315,0.01666542311287487,0.07181672514441523,-0.0009885079677080689,-0.3093559180137626,0.14083078861782364,0.045417701065342125,0.019060057294103587,-0.8021894549702612,-0.31543048931215856
591,137.322,0.014504401094080256,0.07260785473121387,-0.0007422450576051824,-0.3080789444985435,0.08520623618162762,0.024943130392575123,0.018144245477650624,-0.8184179152808665,-0.28109098693835577
592,137.329,0.01235244498382223,0.07300752865668901,-0.0006304638864203709,-0.3067656584318819,0.028986313954044753,0.006994347088776803,0.020118014363832183,-0.8195354043700902,-0.24184230843586174
593,137.336,0.010210912501775991,0.07301492941467143,-0.0006347590862118852,-0.30510076500946287,-0.02687181167335404,-0.008221547029208597,0.02838823751387682,-0.8078770621663599,-0.2014689466228273
594,137.342,0.008386701297510889,0.07271298607039532,-0.0007162752537006112,-0.3029696364122148,-0.0737759697520102,-0.018950508800365726,0.04404997523794666,-0.7864206194630916,-0.16321426225946936
595,137.349,0.006279178938575188,0.07201098091368888,-0.0008840907848871307,-0.2991796090000003,-0.12679693216478918,-0.028996785824514523,0.06637152190144849,-0.7583318091136209,-0.12948149664414374
596,137.356,0.004204100992925451,0.07094501803683197,-0.001114845319514239,-0.29369980404235796,-0.17776388979411145,-0.03693308121175501,0.09328121979171494,-0.726577705764719,-0.10174047699429295
597,137.363,0.002174045723581435,0.06953006438994228,-0.0013952800444429177,-0.28631598719837487,-0.22650858074551053,-0.04319112591066733,0.12184443019296205,-0.6935866273696994,-0.0805860841776187
598,137.369,0.0004800394994549247,0.06805145078013788,-0.0016673508213923339,-0.27835275417710714,-0.266362622522601,-0.047499133072467926,0.14883016379062447,-0.6610737910568777,-0.06584540743947907
599,137.376,-0.001429970989285233,0.0660318027824918,-0.002014563501859855,-0.2673645283196909,-0.31067966251872486,-0.05170448991818146,0.1713090378854517,-0.6300920430918789,-0.056676608472770874
600,137.383,-0.003258473211685412,0.06370911660465432,-0.0023894985580954,-0.25506467807998684,-0.35294495972008033,-0.055419811863326306,0.18704401087505476,-0.6012967798373217,-0.05156836363849159
601,137.39,-0.004998079651911366,0.06109713324750761,-0.0027894400159981896,-0.2419657334148057,-0.3933359994671909,-0.05884917610928152,0.19459045335439154,-0.5754860227141739,-0.04834530269919572
602,137.396,-0.006415615021030591,0.05863741393654632,-0.0031507494387423393,-0.23054605629158456,-0.4265704375198747,-0.06158729813876386,0.1935705436296518,-0.5541704876701934,-0.04472494485330662
603,137.403,-0.007983904624655813,0.05552005130550507,-0.003591953269473898,-0.21753668760101594,-0.4641045999198443,-0.06447093921302004,0.1854541470666565,-0.5393779106088973,-0.03928921388457949
604,137.41,-0.00946350439436716,0.052142577227767724,-0.004051794511515722,-0.20520610374478104,-0.5008879937187086,-0.06691227279883571,0.173794317895562,-0.5322970329633007,-0.03183842722233516
605,137.417,-0.01085950731164596,0.048508538560010125,-0.00452677155958875,-0.19365187262030528,-0.5374087684970055,-0.06879545522193252,0.1628353051362584,-0.5317265713772166,-0.02302761988696481
606,137.423,-0.011993309872307832,0.04519004272595942,-0.004942812719546168,-0.18428231426697145,-0.5687565095198551,-0.06988493143053486,0.15564104690830577,-0.5338000873305145,-0.014004265231884727
607,137.43,-0.013246152765323002,0.041080559712416004,-0.005434423717139678,-0.17367279802282115,-0.6053814943488515,-0.07057535359608212,0.15346454526326636,-0.5332596506743861,-0.006111011225468933
608,137.437,-0.014424663164541406,0.03671573064067361,-0.005929239785607044,-0.16304445889648225,-0.6417125261480834,-0.07080066596592145,0.15618944685523933,-0.5252358396075281,-0.00045340810337346515
