Time,Time,Sum Acc X,Sum Acc Y,Sum Acc Z
287.874,287.874,0.0002548060776683634,0.0004646476409060976,0.00013189959259955124
287.881,287.881,0.0019313073008967716,0.004097603431876394,0.0011578919187944276
287.888,287.888,0.00688214611946162,0.017849391894627337,0.005082865358326928
287.894,287.894,0.015247337111082499,0.05213885081897313,0.015168393464421788
287.901,287.901,0.022518507359171373,0.11675666683905897,0.035140416275957195
287.908,287.908,0.02642640732796707,0.21637957612871103,0.0679892237517823
287.915,287.915,0.05587116552416378,0.3482584822356089,0.11477846739520092
287.921,287.921,0.12691333875470362,0.5025090849004619,0.1738147808864132
287.928,287.928,0.2541811864603795,0.6642923663205247,0.24041971460780556
287.935,287.935,0.4478304879428605,0.8169804042258024,0.30735335646880085
287.942,287.942,0.7111358270114976,0.9455469963671257,0.36591113679273657
287.948,287.948,1.0392527872103043,1.0395865911157784,0.4075689858924988
287.955,287.955,1.4196460635079902,1.0954211544307562,0.42567117621778605
287.962,287.962,1.8339667909849207,1.116836149044003,0.43477630686772023
287.969,287.969,2.260683491271071,1.1192104567168972,0.4714134121128947
287.975,287.975,2.6778639865202525,1.1292655137795085,0.5329481729493114
287.982,287.982,3.065421000265112,1.1316077208116808,0.6145047411405377
287.989,287.989,3.405987100327666,1.1689249003310915,0.7097225706700252
287.996,287.996,3.6839044409622472,1.26436429002674,0.8109507189798928
288.002,288.002,3.880480175310115,1.4418576345246936,0.9037390830824367
288.009,288.009,3.9495057305789936,1.7356523032608868,0.9488428222698628
288.016,288.016,4.131483303184943,2.2019485069016453,1.033218707204177
288.023,288.023,4.77688245148231,2.9074871896863153,1.3590149121446795
288.029,288.029,6.106178889230371,3.891943654370431,2.0206385881549442
288.036,288.036,8.236555910288477,5.133934149714401,3.0442618196068003
288.043,288.043,11.123559220153275,6.54618722454347,4.367735364402499
288.05,288.05,14.565822440677083,8.001050995148226,5.857804129055976
288.056,288.056,18.25325339200868,9.367740503906044,7.347980252366721
288.063,288.063,21.83697179964481,10.540316661339169,8.676768775976567
288.07,288.07,24.995437383769456,11.45149394931434,9.715594134468642
288.077,288.077,27.4801379904206,12.076634087732465,10.383754396522557
288.083,288.083,29.139122809828308,12.428600298161664,10.651495068538823
288.09,288.09,29.923850493135784,12.545167917163734,10.767650144243394
288.097,288.097,29.965081884955737,12.61459433825399,11.213335469627154
288.104,288.104,30.706803034864365,12.817312265134854,11.907317822692765
288.11,288.11,31.97670148950516,13.101129633533242,12.754579290912172
288.117,288.117,33.589229905838955,13.417819372220645,13.659847158501897
288.124,288.124,35.37343927322371,13.727982668780086,14.539252689105169
288.131,288.131,37.18922247192196,14.004851061692435,15.328672267637497
288.137,288.137,38.931313415317554,14.23489596260115,15.988189477017606
288.144,288.144,40.52585353677338,14.416577409482844,16.502260666104352
288.151,288.151,41.92568332758184,14.559271277552513,16.875986722722917
288.158,288.158,43.10631348064014,14.682174760252694,17.12919169628913
288.164,288.164,44.06221143366508,14.81192290278123,17.290162473774544
288.171,288.171,44.80404947706352,14.978425572101456,17.390173409478823
288.178,288.178,45.357225187194636,15.20951034751199,17.459442446546145
288.185,288.185,45.76068482436074,15.525699187633679,17.524824988620818
288.191,288.191,46.06480507501247,15.93633359497175,17.608846276941073
288.198,288.198,46.3272231999448,16.43778086506088,17.729150092933768
288.205,288.205,46.605939979736604,17.014408478092466,17.897768037564735
288.212,288.212,46.95066486529552,17.64252913921989,18.12033348227473
288.218,288.218,47.39510566383928,18.29599813939576,18.39570609989067
288.225,288.225,47.95265666347894,18.951257515902146,18.716287141893112
288.232,288.232,48.61612900179621,19.590461666132835,19.069015239243267
288.239,288.239,49.36085556820875,20.20261113348326,19.437009087635886
288.245,288.245,50.15031658986417,20.783197408976605,19.80181061068497
288.252,288.252,50.943196437266685,21.332828265963013,20.145939812618447
288.259,288.259,51.700348920033484,21.855186452663325,20.455244717686707
288.266,288.266,52.39052214880297,22.35478235473169,20.720497872896352
288.272,288.272,52.9942054392071,22.835137930269475,20.937875354673324
288.279,288.279,53.50488416014106,23.297899148658413,21.108273561972346
288.286,288.286,53.92736236299645,23.742850600201965,21.235707275407034
288.293,288.293,54.27374184747328,24.168420938818556,21.325281094415185
288.299,288.299,54.55827561335432,24.572370738937586,21.381380871877703
288.306,288.306,54.79254874323848,24.95258247462804,21.406625307720766
288.313,288.313,54.98226981239684,25.30787285714834,21.41146683338712
288.32,288.32,55.12631914757715,25.638605551159408,21.44675436932705
288.326,288.326,55.21792870772547,25.94681125004032,21.512841745959594
288.333,288.333,55.247319916852575,26.23567426721458,21.608926493997174
288.34,288.34,55.289821637501014,26.50859464297223,21.7322028675342
288.347,288.347,55.41110917881277,26.76831384401414,21.877520411504282
288.353,288.353,55.61330667573899,27.016494561123395,22.037566265535524
288.36,288.36,55.89230311346672,27.25375345244864,22.20342242457276
288.367,288.367,56.237195040932136,27.479905202620387,22.365328961395598
288.374,288.374,56.631309675642996,27.69425678630259,22.5135277055237
288.38,288.38,57.05450573894975,27.895933608410484,22.639043659449552
288.387,288.387,57.485558985224856,28.084178891393403,22.734254198284095
288.394,288.394,57.90383136257982,28.25846045202992,22.793231761765664
288.401,288.401,58.29030120180119,28.418339224270003,22.811992770165656
288.407,288.407,58.62818373331783,28.56333176372134,22.835311885746453
288.414,288.414,58.90342025298737,28.69321718211474,22.900307365683698
288.421,288.421,59.10709822160786,28.808920512669133,23.00364127773996
288.428,288.428,59.24242772250715,28.912667470343973,23.13773767569172
288.434,288.434,59.33237793328208,29.005781890893488,23.290365016901355
288.441,288.441,59.41772766333624,29.085654234309658,23.44655958181899
288.448,288.448,59.5419673509164,29.145757953493714,23.592128405654478
288.455,288.455,59.73209689851433,29.179487934662557,23.716815297955144
288.461,288.461,59.98643285239558,29.18423574096155,23.816201928630935
288.468,288.468,60.27244776887576,29.205766766911715,23.892680869671906
288.475,288.475,60.533347853769975,29.246730133361826,23.955650218394283
288.482,288.482,60.704746094923514,29.29894053287511,24.020167668601612
288.488,288.488,60.737721156731936,29.35679035619004,24.103893591532433
288.495,288.495,60.86335842908769,29.420213652872224,24.223711936073204
288.502,288.502,61.145673499382745,29.494458478390424,24.393275213987376
288.509,288.509,61.574468655446566,29.58735835036027,24.621306023213965
288.515,288.515,62.136244288677084,29.706866350582505,24.910326000779904
288.522,288.522,62.811506851484076,29.859921167124668,25.256241156993497
288.529,288.529,63.573729307255356,30.0514590747615,25.648969925857177
288.536,288.536,64.39259055620659,30.28293187105031,26.073532958758737
288.542,288.542,65.23819346024202,30.551151540323342,26.51128105046698
288.549,288.549,66.08375634951344,30.848193918141288,26.941591119167146
288.556,288.556,66.90699931749855,31.16214591776334,27.344085903485542
288.563,288.563,67.6908703392187,31.47826406414248,27.700843027570027
288.569,288.569,68.42360464187705,31.780486500677558,27.99815215706037
288.576,288.576,69.09829820214559,32.053200949847145,28.22774166502519
288.583,288.583,69.71234000137068,32.282866848134546,28.387379452979292
288.59,288.59,70.26665214803047,32.459132201994045,28.48061958239088
288.596,288.596,70.7645397406467,32.57535528815943,28.515672001196528
288.603,288.603,71.21027739214982,32.62860323637784,28.527636483320293
288.61,288.61,71.60782804255972,32.63791439649962,28.574306361877568
288.617,288.617,71.96006455231219,32.70652641413641,28.643727760388586
288.623,288.623,72.26867216152478,32.82887833592769,28.725164696072397
288.63,288.63,72.53466329088891,32.99766845351006,28.809343278995215
288.637,288.637,72.75920844075794,33.20442266566835,28.888330212703078
288.644,288.644,72.94436577845539,33.440022499272665,28.955279553708028
288.65,288.65,73.09350506569695,33.69495110277397,29.004142752253358
288.657,288.657,73.21179045424284,33.95896655230497,29.02937606663519
288.664,288.664,73.30695632398547,34.22068822707253,29.03277333184858
288.671,288.671,73.38939148806523,34.46799565426595,29.06851931155891
288.677,288.677,73.47055700923141,34.689350399360805,29.13788415555255
288.684,288.684,73.56043832581464,34.87571400503386,29.238704114196413
288.691,288.691,73.66522342364291,35.022594851002154,29.36496170617808
288.698,288.698,73.78580319931517,35.13125943704785,29.50715783712447
288.704,288.704,73.91761950432233,35.20844552361639,29.65353261874349
288.711,288.711,74.05200653965302,35.264832673977686,29.791918978768013
288.718,288.718,74.17838973989049,35.312913474549994,29.911805117190752
288.725,288.725,74.28653002275708,35.36487426800769,30.00607241510376
288.731,288.731,74.36821899460239,35.43093187757567,30.07192167047233
288.738,288.738,74.41811252634231,35.518296327462416,30.11080118383075
288.745,288.745,74.43381999589351,35.63072038230749,30.127534795540342
288.752,288.752,74.45206561146358,35.76854767104347,30.12900579240013
288.758,288.758,74.50194170289973,35.92917430809833,30.135350055039883
288.765,288.765,74.57957780124818,36.10778958940474,30.142999545246212
288.772,288.772,74.67999727059203,36.298210222900316,30.147658684403464
288.779,288.779,74.79758235771473,36.493673582621696,30.14800426266589
288.785,288.785,74.92660315815007,36.687539766028685,30.150261464415003
288.792,288.792,75.06165881672622,36.87385657963978,30.150976621270505
288.799,288.799,75.19796620810021,37.0477228062129,30.15730687114135
288.806,288.806,75.33155225228023,37.205438827608845,30.176305071493353
288.812,288.812,75.45936709984092,37.34451248273494,30.212681566422273
288.819,288.819,75.57930783427075,37.463598747291,30.269670117794167
288.826,288.826,75.69021789929455,37.56242128059379,30.34896776154469
288.833,288.833,75.79193269187319,37.6417095293624,30.45101004236686
288.839,288.839,75.88537200159645,37.703156551611194,30.575308489870064
288.846,288.846,75.97265282433072,37.74934105830798,30.720626075251886
288.853,288.853,76.05710808338944,37.78353931125152,30.884929970286947
288.86,288.86,76.14303096773047,37.809423169263965,31.06522862572498
288.866,288.866,76.23511445581242,37.83071387284622,31.25747461632737
288.873,288.873,76.33778338173468,37.85087587071747,31.456663804273084
288.88,288.88,76.45469597315518,37.87288052737755,31.657162378176277
288.887,288.887,76.58851820622091,37.89898059072927,31.85323757149289
288.893,288.893,76.74081181791666,37.93048689806715,32.03970516934337
288.9,288.9,76.91187763827105,37.967659282646444,32.2125224974839
288.907,288.907,77.1006414426345,38.00976920056036,32.36914050283107
288.914,288.914,77.30478396000649,38.05530731011642,32.50850281764099
288.92,288.92,77.52114056610351,38.102305205412605,32.63075980092692
288.927,288.927,77.74618562961416,38.14868587390533,32.73695179108759
288.934,288.934,77.97644681361413,38.192532022617385,32.82886002143051
288.941,288.941,78.20883554374008,38.23224432526401,32.90898048559148
288.947,288.947,78.44089341889322,38.266626207425155,32.9804555270071
288.954,288.954,78.67089275363773,38.29491063902655,33.04687200284233
288.961,288.961,78.89775670929988,38.316722177589185,33.11194531516054
288.968,288.968,79.12087394770968,38.331995232694645,33.179168263331725
288.974,288.974,79.33991673478964,38.34087949853506,33.251525784331356
288.981,288.981,79.55470619803083,38.343650072857315,33.3313393655857
288.988,288.988,79.76514851657836,38.346661069343085,33.420210054930095
288.995,288.995,79.97129780929916,38.355153168281376,33.51899871323866
289.001,289.001,80.17346297985716,38.36901541245209,33.62787128209347
289.008,289.008,80.3721587393679,38.38841598311013,33.74648444660727
289.015,289.015,80.56798967515826,38.413674264817146,33.87425371632456
289.022,289.022,80.76167848923214,38.44504659137717,34.01052142249293
289.028,289.028,80.95411249179514,38.48259268540306,34.154544207408506
289.035,289.035,81.14620673000366,38.52610477399148,34.305342812275384
289.042,289.042,81.33861098227736,38.575130282565176,34.46145429034247
289.049,289.049,81.531435237552,38.62918289680958,34.62071207350669
289.055,289.055,81.72421448663613,38.68799487044389,34.7802926386318
289.062,289.062,81.91631416433485,38.75150205603417,34.93711559606183
289.069,289.069,82.10780453673962,38.819548087470274,35.088395180529076
289.076,289.076,82.30031803229204,38.89162709941096,35.23206981696465
289.082,289.082,82.49709894792406,38.96688716334166,35.36699398793639
289.089,289.089,82.70200689680398,39.0443245858222,35.4929331976621
289.096,289.096,82.91797471954041,39.12299299579836,35.61045938703331
289.103,289.103,83.1456235985147,39.20215511981999,35.72085530628597
289.109,289.109,83.38272498383654,39.28137542574251,35.82613742487886
289.116,289.116,83.62495726837338,39.36055034859919,35.92917480402408
289.123,289.123,83.86725340796953,39.43992004296917,36.03361460415802
289.13,289.13,84.10435413808943,39.51992442214407,36.14336034152244
289.136,289.136,84.33101816529594,39.60065387579071,36.261816326535815
289.143,289.143,84.54412249873248,39.68120194277483,36.39138144115029
289.15,289.15,84.74696702036044,39.75959551515639,36.53340623895738
289.157,289.157,84.95263178896914,39.83342222731811,36.68840926306448
289.163,289.163,85.18297362535672,39.90068864453594,36.85614105143447
289.17,289.17,85.46301812716139,39.96057663520235,37.035128290630745
289.177,289.177,85.81325962477082,40.014046449412774,37.22169321401616
289.184,289.184,86.24300356841093,40.06396747021007,37.409153504012366
289.19,289.19,86.74741951364149,40.11422992767161,37.58831292909176
289.197,289.197,87.30923328706467,40.168022916309845,37.74963716703984
289.204,289.204,87.90296419995911,40.226513077111065,37.88614510416702
289.211,289.211,88.4984376065161,40.28886482743801,37.99538346770717
289.217,289.217,89.0629484118819,40.35306278520231,38.07950386462453
289.224,289.224,89.56388863975407,40.416498747213396,38.14373856654376
289.231,289.231,89.97212555396784,40.47623399586764,38.194329055957915
289.238,289.238,90.26437348491177,40.52944025252009,38.23687522567711
289.244,289.244,90.42383117095986,40.574052210979325,38.27555702530389
289.251,289.251,90.44003585192515,40.609260752272284,38.313093239645546
289.258,289.258,90.57134958657556,40.63586127582955,38.351110383067784
289.265,289.265,90.847842475181,40.65681325628132,38.391162031768545
289.271,289.271,91.2570541245396,40.6777288676823,38.43707157729364
289.278,289.278,91.76762569967687,40.706687200038644,38.49802724601736
289.285,289.285,92.32165168152092,40.75384283117626,38.58989121803734
289.292,289.292,92.84055597101901,40.830917828377544,38.73254324146225
289.298,289.298,93.2468535564192,40.949011236553226,38.94383265438908
289.305,289.305,93.48803607154832,41.11477036624722,39.23293240681547
289.312,289.312,93.54713742606351,41.32766646890851,39.5959399166243
289.319,289.319,93.65597620188586,41.58012773840806,40.01500458365653
289.325,289.325,93.89799530374619,41.85973167073779,40.46071724956512
289.332,289.332,94.22766236446486,42.15188694790258,40.89686916473793
289.339,289.339,94.59718496931544,42.44216505191077,41.28636899652162
289.346,289.346,94.9640436439763,42.718226349809484,41.59688807013797
289.352,289.352,95.29635983232022,42.97129533628833,41.8051524535983
289.359,289.359,95.57523164724758,43.1968356376296,41.89950698584395
289.366,289.366,95.79443540962549,43.39429608033609,41.918169179853095
289.373,289.373,95.9583347842489,43.56620559262763,42.036989934512555
289.379,289.379,96.07887312496068,43.71693799991299,42.23323293754735
289.386,289.386,96.17233461802495,43.851379400718756,42.47770408251005
289.393,289.393,96.25623452798766,43.9737484428529,42.73896097820288
289.4,289.4,96.34660185595911,44.086809251068615,42.98750296515814
289.406,289.406,96.45595706128499,44.19158581933338,43.19914347862209
289.413,289.413,96.59221837123135,44.287542926027704,43.357110712898155
289.42,289.42,96.75858249532723,44.37309079260703,43.45288440162712
289.427,289.427,96.95417222324213,44.446229610191054,43.48601664008154
289.433,289.433,97.17501911965657,44.505214299334604,43.50887423075059
289.44,289.44,97.41498026014035,44.54916480871457,43.5756115759131
289.447,289.447,97.6664979806499,44.57849432384873,43.67082243172198
289.454,289.454,97.92135439563324,44.5950201895799,43.77822089702033
289.46,289.46,98.17151569206683,44.60174177826402,43.88296655426313
289.467,289.467,98.40996339654666,44.60240227832862,43.97355979054582
289.474,289.474,98.63131413867839,44.603799986950804,44.04302432643711
289.481,289.481,98.83211482150945,44.60419670983139,44.08918422814802
289.487,289.487,99.010841883896,44.609770007498575,44.114020345035186
289.494,289.494,99.16768175728487,44.62318470175144,44.12230781003489
289.501,289.501,99.3041580780151,44.646239158004924,44.12475936625173
289.508,289.508,99.4226469885464,44.67982796261553,44.13286475296932
289.514,289.514,99.52581234482874,44.72399726819404,44.143550073120245
289.521,289.521,99.61609164658203,44.77808892896084,44.15622069277266
289.528,289.528,99.69540878270831,44.84095086355134,44.17240014082066
289.535,289.535,99.76513059739906,44.91115150919164,44.194828457092434
289.541,289.541,99.82618017706977,44.98717385490635,44.22643350488728
289.548,289.548,99.87919820283844,45.067613081286254,44.2695344973307
289.555,289.555,99.92457254405203,45.15138419843032,44.325440347056
289.562,289.562,99.96229873405133,45.237879368537435,44.39438641127628
289.568,289.568,99.99190627960375,45.32696117514161,44.47563280151816
289.575,289.575,100.01262083547076,45.41874583485682,44.567573020725526
289.582,289.582,100.02369788275476,45.51327006168393,44.66782775986709
289.589,289.589,100.02481436477713,45.610187277903464,44.773396326763056
289.595,289.595,100.03322336180136,45.70861379888992,44.880937130006856
289.602,289.602,100.04983849951707,45.80718300080267,44.98718013397794
289.609,289.609,100.07264915044348,45.90427126331808,45.089389749351824
289.616,289.616,100.09941490436115,45.99829981889525,45.185749994821144
289.622,289.622,100.128227728278,46.08803775973236,45.2755614518047
289.629,289.629,100.15796080102268,46.172828738281126,45.359194350576196
289.636,289.636,100.18835399641674,46.25258092442343,45.43779130926667
289.643,289.643,100.21972828579015,46.32752721092238,45.512776185376026
289.649,289.649,100.25267484693732,46.398052478099764,45.58533890860191
289.656,289.656,100.28790741123275,46.46472084930295,45.656147014685786
289.663,289.663,100.32615624538646,46.52834647430051,45.725439075355766
289.67,289.67,100.36805589548048,46.58998479285843,45.79340022939801
289.676,289.676,100.41410245342654,46.65082265009035,45.860516253302556
289.683,289.683,100.46467392336184,46.711976598032415,45.92762605522996
289.69,289.69,100.52002170864651,46.77424854877535,45.99561011315836
289.697,289.697,100.580207842127,46.837931430305375,46.064886062340946
289.703,289.703,100.64504128156925,46.902739412642646,46.13498212808736
289.71,289.71,100.71401381406696,46.96785544364684,46.20440062522344
289.717,289.717,100.78620343437385,47.03206558397936,46.27086678997051
289.724,289.724,100.86023571919493,47.09399728859597,46.331936305672215
289.73,289.73,100.93447852340987,47.15244434222499,46.38578894970019
289.737,289.737,101.0075021321288,47.206666406765656,46.43195850847185
289.744,289.744,101.07860782585888,47.25655228093369,46.471766150974005
289.751,289.751,101.14815440889477,47.302614687675444,46.50824649249403
289.757,289.757,101.21759445346328,47.34587120373015,46.545468887256725
289.764,289.764,101.28924553217196,47.387668165339974,46.587465373391304
289.771,289.771,101.36567277404855,47.42943639721316,46.6372987782477
289.778,289.778,101.44885413549513,47.472476253273356,46.69677825661259
289.784,289.784,101.53978118484505,47.51793896788575,46.76686894514552
289.791,289.791,101.63873077471216,47.56692096270821,46.84834433968713
289.798,289.798,101.74580596303545,47.620454358409354,46.942127054286075
289.805,289.805,101.86129996177925,47.67933443866051,47.04908376343761
289.811,289.811,101.98563734220909,47.74385501887276,47.16943463918117
289.818,289.818,102.1189747876648,47.81356737790861,47.30211282144563
289.825,289.825,102.26082669580212,47.88719160124295,47.44438312196656
289.832,289.832,102.4099655934285,47.96273700781629,47.59188670967419
289.838,289.838,102.56450926093346,48.037767975952505,47.73912868709308
289.845,289.845,102.72200810797091,48.1097181552114,47.88036022171712
289.852,289.852,102.87956784560403,48.17619832934987,48.010705459224994
289.859,289.859,103.03419980078378,48.23524955069338,48.12717861815942
289.865,289.865,103.18341659487676,48.28551734309356,48.229160143823826
289.872,289.872,103.32580565840283,48.326403581485174,48.31814181368405
289.879,289.879,103.46130047669406,48.358203133139334,48.396882669912756
289.886,289.886,103.5911085275354,48.382115814683786,48.468251544315116
289.892,289.892,103.71741904008633,48.40010695897354,48.534099175486496
289.899,289.899,103.84301105928624,48.41469433670455,48.59460730639053
289.906,289.906,103.97084667831301,48.42867587077396,48.648440606599706
289.913,289.913,104.10374385341674,48.4447845800077,48.693628130497025
289.919,289.919,104.24416876699796,48.465318156370095,48.72873760734967
289.926,289.926,104.39403200319103,48.49179647424712,48.7538322831445
289.933,289.933,104.55440166430951,48.52468183346522,48.7709486140936
289.94,289.94,104.72530810593997,48.56324941145822,48.78414852940281
289.946,289.946,104.90588669256023,48.605727396405705,48.799260435330126
289.953,289.953,105.09486938966685,48.64972116957971,48.82329287858562
289.96,289.96,105.29123895983473,48.69280556979527,48.86348130517379
289.967,289.967,105.49481036614819,48.733144835192284,48.926072590711165
289.973,289.973,105.70648745599944,48.77001076128438,49.01513114792416
289.98,289.98,105.92800301975974,48.80404203137668,49.131718002518426
289.987,289.987,106.16113729064935,48.83710751213009,49.27362515741187
289.994,289.994,106.4066575886868,48.87175761690605,49.43558014095905
290.0,290.0,106.66340016590796,48.91038159800309,49.60976659694905
290.007,290.007,106.92789727440001,48.954308209957816,49.78658365749705
290.014,290.014,107.19469475696735,49.00312882802652,49.9555447807606
290.021,290.021,107.45707415992052,49.05437882710811,50.10617872750268
290.027,290.027,107.70760187566455,49.10356020575143,50.22888806721475
290.034,290.034,107.93822865101151,49.144475880745205,50.3157947220899
290.041,290.041,108.140332674882,49.169835001958255,50.361560577264655
290.048,290.048,108.30519035968167,49.17202973760216,50.36405619604659
290.054,290.054,108.4246917308862,49.20010848322933,50.40348492105696
290.061,290.061,108.49168406582818,49.2643898415947,50.48036027166707
290.068,290.068,108.49974341198832,49.369278865348655,50.58801563996262
290.075,290.075,108.55672644670008,49.517746003315324,50.718856480142854
290.081,290.081,108.68481780721623,49.711734743068604,50.86539247057657
290.088,290.088,108.89017020141797,49.952641537147464,51.0206022092559
290.095,290.095,109.17905203862229,50.24172958826712,51.1779063428739
290.102,290.102,109.5577298042131,50.58052134714301,51.33152027911168
290.108,290.108,110.03198806570427,50.971256795781116,51.477526379815
290.115,290.115,110.605841529041,51.417613918350916,51.61539040613796
290.122,290.122,111.27926311076875,51.92607839419598,51.749454134406214
290.129,290.129,112.04590139015177,52.50841275750036,51.88972842172842
290.135,290.135,112.89253659829373,53.184795731845355,52.050970608949584
290.142,290.142,113.80058011097277,53.984580073537366,52.24890330111015
290.149,290.149,114.74799281423508,54.940574421788206,52.493129481001354
290.156,290.156,115.70811788658017,56.07254635737737,52.77374678432356
290.162,290.162,116.63691685241236,57.350716254661684,53.039922837897564
290.169,290.169,117.4421526896396,58.640550952628736,53.19107990737015
290.176,290.176,117.95307333108491,59.678654569969034,53.273578828680186
290.183,290.183,117.96631362845496,60.14774677219255,53.666118099108104
290.189,290.189,118.69348451651783,60.47197242043077,54.35463902944291
290.196,290.196,120.16323626560079,61.622464579176125,55.22671955302958
290.203,290.203,122.20908928464273,63.44975658883455,56.10752692761755
290.21,290.21,124.54809078384831,65.68901173840615,56.819323384201645
290.216,290.216,126.88843727496682,68.02933256893031,57.234962619099434
290.223,290.223,128.99152677105246,70.17314096893253,57.30670116290096
290.23,290.23,130.69081300219648,71.8868796560402,57.54727823236596
290.237,290.237,131.89736153214906,73.03500991257731,58.011217240176975
290.243,290.243,132.59809305284776,73.5881958777726,58.58276985456833
290.25,290.25,132.84140703133986,73.60763474224008,59.14720466411942
290.257,290.257,132.96592370528566,73.99905656808217,59.61055556296877
290.264,290.264,133.34519003230608,74.64836039818555,59.91048237662378
290.27,290.27,133.85906780010447,75.40098342463173,60.019838042188425
290.277,290.277,134.39766986477574,76.12342748085207,60.0946209790322
290.284,290.284,134.87542835279524,76.71822843058008,60.31941679848498
290.291,290.291,135.23737441146645,77.13037644460223,60.64161545558456
290.297,290.297,135.45820315472952,77.34580737323968,61.0008572841973
290.304,290.304,135.53769430970038,77.38333799321465,61.34026423597388
290.311,290.311,135.58145607995445,77.48517215098467,61.61664938049766
290.318,290.318,135.72097322002892,77.68220005577447,61.80595740972326
290.324,290.324,135.92655524725052,77.93355546463637,61.90199030252635
290.331,290.331,136.16869046038036,78.20445870636051,61.911337345624084
290.338,290.338,136.4195909744705,78.46689881389356,61.97412098357842
290.345,290.345,136.6578374617085,78.7015187484215,62.08936666292857
290.351,290.351,136.87356319390818,78.90097166327635,62.23370942708977
290.358,290.358,137.07062148617734,79.07156114377995,62.38175091837496
290.365,290.365,137.26410103072314,79.22961639184936,62.509029090109436
290.372,290.372,137.4725072328162,79.39310773600565,62.59597935296091
290.378,290.378,137.70718774120803,79.57192620376291,62.631938461554896
290.385,290.385,137.9645696334608,79.76060014983923,62.64573004173154
290.392,290.392,138.22454130869696,79.93640765112418,62.695209158220564
290.399,290.399,138.45366651635516,80.0633325756221,62.75553708089269
290.405,290.405,138.6108223141813,80.09971455432974,62.796100725907074
290.412,290.412,138.6544266801362,80.19261760014277,62.80501782729932
290.419,290.419,138.75878499113796,80.44331988498479,62.885847239751676
290.426,290.426,139.03237441210965,80.865605361527,63.04929118216765
290.432,290.432,139.48019541401598,81.45766211328896,63.292639306639344
290.439,290.439,140.09148730969954,82.20463277522201,63.60072569184866
290.446,290.446,140.84340087126736,83.08325082242084,63.94887424574484
290.453,290.453,141.70470928894372,84.06695311037123,64.30725046103517
290.459,290.459,142.63811598890436,85.13077049407765,64.6460983939275
290.466,290.466,143.60373011299018,86.25429012024318,64.9399224996534
290.473,290.473,144.5605097315953,87.41382776290392,65.16383100019384
290.48,290.48,145.45099310131087,88.5518234486292,65.2794794149676
290.486,290.486,146.17130467552954,89.54170308199711,65.32678464042957
290.493,290.493,146.56971682518852,90.20417992878285,65.57750158744183
290.5,290.5,146.6322740335928,90.38617590655082,66.01729873732835
290.507,290.507,147.20053402776873,90.7426973205332,66.56839898771051
290.513,290.513,148.1956359781393,91.59356210448613,67.11545537408944
290.52,290.52,149.4549953484785,92.81968812260233,67.54136340134549
290.527,290.527,150.79664909181588,94.25491542779965,67.75833344335409
290.534,290.534,152.06323442188213,95.7131269545063,67.78687622197283
290.54,290.54,153.13552545490705,97.0189260747091,68.0389590754183
290.547,290.547,153.93244742658342,98.0364704290477,68.44481466472219
290.554,290.554,154.41379868098485,98.68827954615828,68.91050838612364
290.561,290.561,154.58413631628503,98.96037368385254,69.34262747930383
290.567,290.567,154.67917050720888,99.02602954647192,69.66531397272033
290.574,290.574,154.96584242494473,99.3482231933565,69.82890900334294
290.581,290.581,155.36002569534884,99.8271565422551,69.84469070720458
290.588,290.588,155.7833824422427,100.36449283317724,70.0311975648769
290.594,290.594,156.1737534139196,100.87879769422501,70.3551118515666
290.601,290.601,156.48934301024914,101.3124709257244,70.76764877834563
290.608,290.608,156.70771193080992,101.63069687200698,71.21673401120493
290.615,290.615,156.8231729420271,101.81629862948846,71.65699440839558
290.621,290.621,156.84656271546177,101.86401714689238,72.0547913788775
290.628,290.628,156.89000038441338,101.94858640940171,72.38923546092354
290.635,290.635,156.9694850515988,102.14562634063988,72.65068360738147
290.642,290.642,157.05885922621997,102.42221440674835,72.83774940118155
290.648,290.648,157.141004660979,102.73998606100027,72.95382500892462
290.655,290.655,157.20724932840878,103.06219858298773,73.00428199198426
290.662,290.662,157.25552115375626,103.35736773987975,73.01337361472396
290.669,290.669,157.2881397235458,103.60155001343557,73.07518977112514
290.675,290.675,157.3093219230705,103.77958671286648,73.18152684462561
290.682,290.682,157.32335356781263,103.88453408273318,73.32228381019472
290.689,290.689,157.33322950397053,103.91555251216522,73.48561083424772
290.696,290.696,157.33886764261837,103.95618971259111,73.65898105014837
290.702,290.702,157.34266426653735,104.06636401575072,73.83088471690199
290.709,290.709,157.36781699210678,104.24678266994123,73.9924667421006
290.716,290.716,157.43363035821818,104.50209438333975,74.13845039369374
290.723,290.723,157.56545643783141,104.84003693925976,74.26704121718711
290.729,290.729,157.79091511575797,105.26913162591127,74.37884335204649
290.736,290.736,158.13545473690448,105.79609981633693,74.47513011616908
290.743,290.743,158.6188622129337,106.42406001035901,74.55638754505546
290.75,290.75,159.25241278513838,107.15217852117016,74.62213754790771
290.756,290.756,160.03675591393554,107.97706853204072,74.67186663781936
290.763,290.763,160.96130870943745,108.89522628848248,74.70568578184012
290.77,290.77,162.00526463847257,109.90499358717084,74.7236145302908
290.777,290.777,163.14010412374802,111.0070666829785,74.72376398983796
290.783,290.783,164.33315951996187,112.2018863607178,74.74712920715154
290.79,290.79,165.5455985550981,113.47694044006482,74.80565483462779
290.797,290.797,166.70984708998262,114.77042578058558,74.91661502049286
290.804,290.804,167.69063427696284,115.921380261068,75.09395878454144
290.81,290.81,168.27785349133,116.67329589994769,75.33422667727693
290.817,290.817,168.29820358618153,116.77758657824131,75.61146446823115
290.824,290.824,169.02511527838496,117.42995577688302,75.88469655421244
290.831,290.831,170.36961761541414,118.75701422453585,76.10977087976285
290.837,290.837,172.0879375230758,120.5313497555213,76.24912470910989
290.844,290.844,173.8858606576489,122.46438218394799,76.27748105430611
290.851,290.851,175.51026578614378,124.2785156515791,76.36982289872827
290.858,290.858,176.78676283501397,125.75508798613095,76.57495432311666
290.864,290.864,177.6238086924651,126.76219538468277,76.86945043208527
290.871,290.871,178.0077703604334,127.26235087928424,77.22164665662977
290.878,290.878,178.02525525838703,127.30077386507575,77.5992482307773
290.885,290.885,178.34905100909074,127.62057789186868,77.97242652135247
290.891,290.891,178.8649657432654,128.1656033473404,78.31302696207223
290.898,290.898,179.46030674434712,128.79988317467357,78.59354269370833
290.905,290.905,180.03850546632202,129.40478633083913,78.78841224969297
290.912,290.912,180.5279237987228,129.8917301897352,78.87799405500883
290.918,290.918,180.8852714251151,130.20785681625182,78.90234243292248
290.925,290.925,181.09478302489643,130.3359447606825,79.03466123510745
290.932,290.932,181.1644515238549,130.38227211471107,79.25411551408203
290.939,290.939,181.20939996950545,130.56695066907164,79.52824396469326
290.945,290.945,181.33510264360788,130.84139480891378,79.81884435893153
290.952,290.952,181.50642968220987,131.1542336410913,80.08880682868251
290.959,290.959,181.69124716859102,131.46066307617633,80.3074763084788
290.966,290.966,181.86329220386287,131.72847578459212,80.45336604486545
290.972,290.972,182.00347864513265,131.93765996608886,80.51551646169167
290.979,290.979,182.09969043911417,132.07811050374232,80.53656666658277
290.986,290.986,182.1480175179804,132.15007446601413,80.62921527886257
290.993,290.993,182.15369403080484,132.16419288679728,80.77327915935142
290.999,290.999,182.17957193357176,132.19021715512017,80.94377174270225
291.006,291.006,182.2253850669508,132.2365967405041,81.11501394430402
291.013,291.013,182.28206383191124,132.28569368877115,81.26449122243154
291.02,291.02,182.34324315678097,132.32439946562084,81.37603092753524
291.026,291.026,182.40431762342473,132.34461689811246,81.44171465855294
291.033,291.033,182.4617221419884,132.34654224459922,81.46209133759669
291.04,291.04,182.5127522348215,132.37055483235798,81.47930354336853
291.047,291.047,182.55568186039145,132.41362227079438,81.52147521431021
291.053,291.053,182.5896550530648,132.47070709213915,81.57374769368244
291.06,291.06,182.61428222597172,132.53596096596763,81.62157833101976
291.067,291.067,182.62945914916816,132.60378922174974,81.65267162827986
291.074,291.074,182.6356447316198,132.66947456695155,81.6582038662026
291.08,291.08,182.63716924671718,132.72938392816053,81.68289330522236
291.087,291.087,182.64466077898177,132.781024134303,81.73806407643752
291.094,291.094,182.65680146537963,132.82314111204462,81.81987901904945
291.101,291.101,182.67362815954985,132.8558416705051,81.92122898873454
291.107,291.107,182.6966401559255,132.88045162296444,82.0329862005242
291.114,291.114,182.72674586150512,132.89898595242346,82.14570844644152
291.121,291.121,182.76220107702216,132.9136430741736,82.2513546958956
291.128,291.128,182.80047677941184,132.92613563137334,82.34447975985603
291.134,291.134,182.84110817703714,132.9366838693124,82.42286147699562
291.141,291.141,182.88485793744792,132.9441068470782,82.48713923108153
291.148,291.148,182.93152257110773,132.947324844304,82.53928979018468
291.155,291.155,182.9793933247373,132.94824883349307,82.58083441594668
291.161,291.161,183.0255087210058,132.95219827294184,82.61166675489359
291.168,291.168,183.0659681856487,132.9574151512724,82.62987370816249
291.175,291.175,183.0967370728399,132.96191956463048,82.63253045710003
291.182,291.182,183.1147745095241,132.96402109793172,82.6479590452846
291.188,291.188,183.11877090492243,132.96527283093192,82.68209195808284
291.195,291.195,183.1283028380504,132.9699182078725,82.73247147548439
291.202,291.202,183.1492459064102,132.97722917427168,82.79320668195761
291.209,291.209,183.17808868565075,132.98603585487913,82.85562125376653
291.215,291.215,183.21020232584925,132.99507438405752,82.90976500312632
291.222,291.222,183.24038684068472,133.0032683492676,82.9463790787515
291.229,291.229,183.26366035823514,133.00992134769515,82.95878979551942
291.236,291.236,183.27602905977284,133.01478451168202,82.97334646999977
291.242,291.242,183.2770794081779,133.01799076289598,83.0132910685883
291.249,291.249,183.29243939243523,133.01987552531196,83.07320586646055
291.256,291.256,183.32154759069917,133.02074517780704,83.14516510942593
291.263,291.263,183.36281780276155,133.02080173828045,83.22064950464758
291.269,291.269,183.41407895295004,133.02127274212395,83.29250457975466
291.276,291.276,183.4727427601185,133.0217211815958,83.35628780338698
291.283,291.283,183.53582060085898,133.02201985096363,83.41070380636887
291.29,291.29,183.60017913258423,133.02370234630587,83.45722298216596
291.296,291.296,183.66303089349,133.02709586167387,83.49913940014439
291.303,291.303,183.7222422082907,133.0321164165318,83.54040886198489
291.31,291.31,183.77626141153158,133.03830100713168,83.58460451337949
291.317,291.317,183.82392153659384,133.04496972239986,83.63413948978187
291.323,291.323,183.86441005111698,133.05144244711013,83.6897358786053
291.33,291.33,183.89733705145923,133.05721751096993,83.75016850202701
291.337,291.337,183.92266262670933,133.06209324324067,83.81240432010053
291.344,291.344,183.9405430927846,133.0662325031163,83.87217036986291
291.35,291.35,183.95140256696706,133.07011784581675,83.92479787691178
291.357,291.357,183.95630955118241,133.07434935149806,83.96609220210541
291.364,291.364,183.95730198990475,133.07934458777206,83.99302490554945
291.371,291.371,183.95748604334676,133.0850929628453,84.00416397781089
291.377,291.377,183.95856632359593,133.09108909552208,84.00850616442791
291.384,291.384,183.9619381702962,133.0964598328177,84.02643463741182
291.391,291.391,183.96669637440874,133.10020642232652,84.05493817905077
291.398,291.398,183.97015921964515,133.10146410778907,84.09058586621317
291.404,291.404,183.97191146929495,133.10323897497375,84.1303504555816
291.411,291.411,183.98324581662115,133.1082245978226,84.17240390053298
291.418,291.418,184.00804481171073,133.1163183048921,84.21660907645034
291.425,291.425,184.04897513080567,133.12725993726852,84.26442327896838
291.431,291.431,184.10720434921504,133.1407312330938,84.31819040509046
291.438,291.438,184.18242478447783,133.1564298379908,84.38012162357867
291.445,291.445,184.2729905660731,133.17411622849707,84.45132883671607
291.452,291.452,184.3761765986049,133.1936159081531,84.53114621527432
291.458,291.458,184.4885326243073,133.21479044505722,84.61690156027149
291.465,291.465,184.60625089204885,133.23750626277163,84.70424147982027
291.472,291.472,184.72561211854838,133.26159299108252,84.78795487200304
291.479,291.479,184.84349759828106,133.28676931654414,84.86306186699612
291.485,291.485,184.95770362251608,133.31257710298925,84.92583547410402
291.492,291.492,185.06695137847979,133.33842857702402,84.97444058728037
291.499,291.499,185.1708270310715,133.36379445050446,85.00903301184951
291.506,291.506,185.2697991948649,133.3883937108391,85.03137757121993
291.512,291.512,185.36514245252505,133.41223153905355,85.04417657568256
291.519,291.519,185.4585717458512,133.4355147037944,85.05028393042524
291.526,291.526,185.55165024535992,133.4585693938025,85.0519054762419
291.533,291.533,185.6452410789919,133.48175435972522,85.05391196654237
291.539,291.539,185.73928860115169,133.50530248285483,85.060434730089
291.546,291.546,185.83300125537602,133.52915115996328,85.07401089410465
291.553,291.553,185.92517913035118,133.55285751469927,85.0981901178006
291.56,291.56,186.01441192751687,133.57563073479088,85.13646993449251
291.566,291.566,186.0991995789638,133.596508409873,85.19107574261577
291.573,291.573,186.17817009607742,133.6146652706049,85.26200814395408
291.58,291.58,186.2503869952207,133.62973163918548,85.34672590518552
291.587,291.587,186.31557012125782,133.64195575203865,85.44053913355242
291.593,291.593,186.37399748481695,133.65212977597488,85.53748857269593
291.6,291.6,186.42606044965322,133.66134897407827,85.63140878526598
291.607,291.607,186.47180860808524,133.67074095500115,85.71693568676636
291.614,291.614,186.51081604606074,133.681230693274,85.7902702698415
291.62,291.62,186.54236626973633,133.69335989954197,85.84958523631681
291.627,291.627,186.5657807810095,133.70719559832602,85.89504079864987
291.634,291.634,186.58076470681087,133.72234028896403,85.92841737595388
291.641,291.641,186.58774782154936,133.73803664480238,85.95243268839587
291.647,291.647,186.58823119989563,133.75336736246652,85.96987424057446
291.654,291.654,186.59149816880836,133.76753869854664,85.98272330023364
291.661,291.661,186.59479197964419,133.7801826139569,85.99151245184787
291.668,291.668,186.59552664650144,133.79154960923222,85.99516047153254
291.674,291.674,186.604105183201,133.80249430737732,85.9989753891858
291.681,291.681,186.6238055605388,133.81425892022105,86.01309907960909
291.688,291.688,186.65714885277674,133.8281456395369,86.04014194014573
291.695,291.695,186.7056260089807,133.84521633651408,86.08189230210004
291.701,291.701,186.76952113060705,133.86610147883783,86.13898374432999
291.708,291.708,186.8479261744825,133.8909092361714,86.21082495107576
291.715,291.715,186.93884582728595,133.91924794275528,86.29576754258088
291.722,291.722,187.03937868486088,133.95038147089045,86.39142917499944
291.728,291.728,187.14608333505632,133.98343919046613,86.49504383999857
291.735,291.735,187.25549771997368,134.01755901359513,86.60373852007555
291.742,291.742,187.3646056959434,134.0519192973584,86.71470722404099
291.749,291.749,187.47106324261705,134.08571997958515,86.82531020402897
291.755,291.755,187.57315044815348,134.11820005731167,86.93313160344434
291.762,291.762,187.6695736629043,134.14870970240293,87.03601430053453
291.769,291.769,187.75930374333308,134.17678586421155,87.13209829486067
291.776,291.776,187.8415519697768,134.20218764896367,87.21987714948507
291.782,291.782,187.9158271337052,134.2248842048219,87.29823718487818
291.789,291.789,187.98196522398746,134.24499495907276,87.36642168613578
291.796,291.796,188.04011297410895,134.26269392962558,87.42390162301302
291.803,291.803,188.0907199383022,134.2781163981695,87.47020342882895
291.809,291.809,188.13455450349235,134.29130751050872,87.50479521668174
291.816,291.816,188.17268491430687,134.30221825021124,87.52713459913348
291.823,291.823,188.20641966193753,134.31072522756693,87.53692080127392
291.83,291.83,188.23722527707477,134.31668762941246,87.53937672402958
291.836,291.836,188.26650015571946,134.3200654731723,87.55287675228278
291.843,291.843,188.29520495603055,134.32103150983153,87.57534721066385
291.85,291.85,188.32365501741498,134.32208046466448,87.60414611698747
291.857,291.857,188.35166201188872,134.32461642116544,87.6365050029229
291.863,291.863,188.37883483608286,134.3281028303824,87.66990614970817
291.87,291.87,188.4047781486942,134.33207456843323,87.70228720004489
291.877,291.877,188.42916940672785,134.33617072175076,87.73208703213868
291.884,291.884,188.45179942363538,134.34014138179515,87.75818215184809
291.89,291.89,188.47253535773513,134.3438184802617,87.77975443755265
291.897,291.897,188.49120235296704,134.34706006017373,87.79616752577559
291.904,291.904,188.5075361934723,134.34971399718296,87.80691923564108
291.911,291.911,188.5213004239588,134.35162416922273,87.81164977042279
291.917,291.917,188.5325016323545,134.3526612424576,87.81314513700949
291.924,291.924,188.5415419657672,134.35274692183722,87.82091166481094
291.931,291.931,188.54913195976627,134.3536328495849,87.83481553367493
291.938,291.938,188.5559560869461,134.35544101422192,87.85446975762167
291.944,291.944,188.56232101248946,134.3580185191923,87.87911166094379
291.951,291.951,188.56800914405858,134.36107338726103,87.90751907845123
291.958,291.958,188.57236031146576,134.36417935109958,87.93805133633934
291.965,291.965,188.57449080888298,134.36684298619198,87.96882161185867
291.971,291.971,188.57541481875933,134.36861651756087,87.99794581792895
291.978,291.978,188.57990477579233,134.36920286761836,88.02379677687944
291.985,291.985,188.58795331101535,134.36991122926827,88.04520438924843
291.992,291.992,188.59903919650566,134.37185790388983,88.06155195653902
291.998,291.998,188.61237335132535,134.37486183755365,88.07273108317281
292.005,292.005,188.6272080162854,134.37866386449127,88.07896883008
292.012,292.012,188.64297834794223,134.3830168103615,88.08060188881727
292.019,292.019,188.65928124357976,134.38780741205017,88.08331147132769
292.025,292.025,188.675897217972,134.39312692035864,88.09027165754438
292.032,292.032,188.69289957401742,134.39923181899394,88.10160943449635
292.039,292.039,188.7106789639347,134.40645402978225,88.11772353563511
292.046,292.046,188.72983458684013,134.41515251750477,88.13928103325443
292.052,292.052,188.75103958262417,134.42569283585823,88.16705509756808
292.059,292.059,188.77491535033613,134.4383819429798,88.20160933240513
292.066,292.066,188.8018655579803,134.45335315421877,88.24294152189094
292.073,292.073,188.8318508048665,134.4704715974598,88.29021354180712
292.079,292.079,188.86422623068006,134.4893169386345,88.34165383254101
292.086,292.086,188.8978561890375,134.50924109580498,88.3946743487806
292.093,292.093,188.93149859826622,134.52947646340291,88.44619624877039
292.1,292.1,188.96420637471874,134.54925227773964,88.49309724142854
292.106,292.106,188.99558802727321,134.56787375224408,88.53266296516202
292.113,292.113,189.02589589551437,134.584790360902,88.56297077703488
292.12,292.12,189.05593356807208,134.59969842689753,88.58312799925676
292.127,292.127,189.08688543811965,134.61263160433455,88.59329623231199
292.133,292.133,189.12018044847605,134.62395477638614,88.59455271534108
292.14,292.14,189.15731931138782,134.63427186552755,88.60041125570753
292.147,292.147,189.19956100660286,134.6443384597758,88.61110750318993
292.154,292.154,189.24751539436053,134.6550259597821,88.62420203802209
292.16,292.16,189.3007319113302,134.6672914176393,88.63746596207105
292.167,292.167,189.35743595116602,134.6820257092257,88.64925698011527
292.174,292.174,189.41466376034194,134.69974019516656,88.6588596127951
292.181,292.181,189.46875180289237,134.72027198515772,88.66667115198554
292.187,292.187,189.51581018315417,134.74269816304025,88.67409756468872
292.194,292.194,189.55213800001198,134.76550960354658,88.6831924651419
292.201,292.201,189.5748977009856,134.78697229233182,88.69619664256503
292.208,292.208,189.58295488374225,134.8055010545961,88.71508956359042
292.214,292.214,189.58859309547427,134.81991160367787,88.74119935101206
292.221,292.221,189.60500641101515,134.82955680406863,88.774916112591
292.228,292.228,189.62798934022877,134.83438983886222,88.81555742811773
292.235,292.235,189.65277210376087,134.83494256256816,88.86141005697188
292.241,292.241,189.6747352989238,134.83765077254415,88.9099306722338
292.248,292.248,189.6900397311774,134.8422023739013,88.95806220889573
292.255,292.255,189.69602794884588,134.8468889968892,89.00262246633874
292.262,292.262,189.70079037898273,134.8499152649624,89.04068616855102
292.268,292.268,189.71684022847666,134.85020076342408,89.06984888809403
292.275,292.275,189.7442356290643,134.85517236300836,89.08835613983877
292.282,292.282,189.78271374866702,134.86587657472006,89.09517595709774
292.289,292.289,189.8315819763077,134.88301846431193,89.10035170656946
292.295,292.295,189.88958841021574,134.90700929335094,89.11731678267498
292.302,292.302,189.9548303535366,134.93810387178652,89.14584202169628
292.309,292.309,190.02458831930244,134.97663914654257,89.18633365497739
292.316,292.316,190.095190845896,135.02333043924125,89.24041181184793
292.322,292.322,190.16230584817012,135.07946065023742,89.3111706988097
292.329,292.329,190.2219525385383,135.146853636993,89.40304566656555
292.336,292.336,190.27194618288297,135.22763944070667,89.52125444070475
292.343,292.343,190.3128167134426,135.3235595729989,89.67059290304518
292.349,292.349,190.34742979178822,135.4347999850659,89.85356731571544
292.356,292.356,190.37986263490018,135.55912200976158,90.06850487489125
292.363,292.363,190.4149458752608,135.69187572087603,90.30846344407527
292.37,292.37,190.45736328462067,135.82743049910815,90.56134283524922
292.376,292.376,190.50591946222497,135.9635949938719,90.81162898224444
292.383,292.383,190.54451489488588,136.10838249585998,91.04413957881665
292.39,292.39,190.54896376693338,136.28246298351834,91.24816718945335
292.397,292.397,190.6384523757289,136.5123614460673,91.41892495247298
292.403,292.403,190.853827476145,136.82020422049615,91.55541766687256
292.41,292.41,191.22752108636578,137.21822725433293,91.65683007379005
292.417,292.417,191.77757060181096,137.7080016228584,91.72029688831923
292.424,292.424,192.5026799841763,138.28025160031262,91.74199946637296
292.43,292.43,193.3797236009869,138.9143606220733,91.76276373033961
292.437,292.437,194.36472937199764,139.57926686348918,91.81914146457888
292.444,292.444,195.39759102396513,140.23646772573798,91.8948412942071
292.451,292.451,196.40925977861176,140.84427091439218,91.96620753502553
292.457,292.457,197.32962042361444,141.36219263577897,92.00748374725191
292.464,292.464,198.09515890995291,141.75489632078293,92.01787582390837
292.471,292.471,198.65583696211928,141.99523830340067,92.09215137125882
292.478,292.478,198.98011297862834,142.0659652703656,92.2303603002235
292.484,292.484,199.0569037794036,142.17175411723824,92.42062902550201
292.491,292.491,199.22004541369483,142.4506263692106,92.64216889311568
292.498,292.498,199.6019100338971,142.88906060951643,92.8696151934814
292.505,292.505,200.1736225867002,143.4649302630189,93.07715474948102
292.511,292.511,200.90348208918763,144.15113456773264,93.24144036704266
292.518,292.518,201.76003688328203,144.92039426653366,93.34278025952091
292.525,292.525,202.71445055180035,145.74929192906635,93.36495088237817
292.532,292.532,203.74331631702276,146.62068626716058,93.43522622633411
292.538,292.538,204.83140056059736,147.52457768861134,93.60818132344347
292.545,292.545,205.97278106307382,148.45734787247983,93.88978364166313
292.552,292.552,207.1694599462976,149.41922833194909,94.27971511331424
292.559,292.559,208.42733978462323,150.4108360562501,94.7698139241232
292.565,292.565,209.75023922545287,151.43023049386355,95.34388530792658
292.572,292.572,211.13317999652963,152.47092856116407,95.97868313427449
292.579,292.579,212.55621060489528,153.52053341628448,96.64578684996566
292.586,292.586,213.9801090108897,154.5600193657135,97.3144419427146
292.592,292.592,215.34571446395574,155.56396305994232,97.95493202144053
292.599,292.599,216.57997342196552,156.50224861434626,98.54171486025318
292.606,292.606,217.61177814555603,157.34405806172998,99.05624849199553
292.613,292.613,218.39502388201717,158.0638026290117,99.48987127506433
292.619,292.619,218.92856465462876,158.64665302049482,99.8462120584168
292.626,292.626,219.2621325629596,159.09093643897958,100.14141752147565
292.633,292.633,219.48476781618112,159.40624834171265,100.40069477742792
292.64,292.64,219.70009962673828,159.6082496261514,100.65148597355918
292.646,292.646,219.99686008460714,159.71234232421563,100.91549372797357
292.653,292.653,220.4242973052424,159.72820995073974,101.20227198975637
292.66,292.66,220.97995119587446,159.79983655709586,101.50630482200523
292.667,292.667,221.6162091253338,159.97082424568205,101.806107915823
292.673,292.673,222.25119668144737,160.2727781533413,102.05609462384639
292.68,292.68,222.73912793676564,160.75642098173665,102.16661819416403
292.687,292.687,222.82496531936556,161.4731280878358,102.33490673162598
292.694,292.694,223.46031153269044,162.4525653572654,102.92830936090766
292.7,292.7,225.06375385040482,163.6883553346617,104.02519538737786
292.707,292.707,227.69572197472309,165.12697176524392,105.58373744805607
292.714,292.714,231.19513949556404,166.66426076995668,107.44309024623401
292.721,292.721,235.212410112447,168.16346632139624,109.36819653031299
292.727,292.727,239.28852860558726,169.49036341950762,111.11054832934086
292.734,292.734,242.95143669341368,170.54492534563553,112.46174779680373
292.741,292.741,245.80231075612465,171.2785769569897,113.28978335641375
292.748,292.748,247.57898540843317,171.6966465782999,113.55509870955615
292.754,292.754,248.19305726075044,171.84764740884756,113.80328635778784
292.761,292.761,248.6500886356252,171.88904908077095,114.44605021165198
292.768,292.768,249.9357851792383,172.03812409430628,115.32329098484861
292.775,292.775,251.7141728124288,172.21429037743718,116.26548181437849
292.781,292.781,253.6243996135014,172.35332624587753,117.12217587397491
292.788,292.788,255.34346717695357,172.4142661891639,117.78251743574904
292.795,292.795,256.63219937725216,172.44921032073674,118.18581620769936
292.802,292.802,257.36022547234836,172.5788384115155,118.32231417601396
292.808,292.808,257.5103470158663,172.7875701979268,118.41896592254957
292.815,292.815,257.8559295614605,173.0495335499427,118.68470254031952
292.822,292.822,258.5428664600341,173.332834082643,119.04014337006855
292.829,292.829,259.3788671501512,173.60384745382137,119.40486011902004
292.835,292.835,260.1691131864897,173.83071463625032,119.70872560469009
292.842,292.842,260.74804259863237,173.9858212210299,119.89930446263384
292.849,292.849,261.002450957251,174.04764970891097,119.94540625630655
292.856,292.856,261.1230227447734,174.09292069755782,120.05325237985473
292.862,292.862,261.60950587593913,174.2501740736103,120.3048196167127
292.869,292.869,262.4071121217406,174.51511619910468,120.67428512936007
292.876,292.876,263.43426373794745,174.87564591617775,121.12577794292633
292.883,292.883,264.60150079572793,175.31462698520718,121.61963778586605
292.889,292.889,265.8267692513053,175.8130995100052,122.11845554323563
292.896,292.896,267.0447441436646,176.35287967175645,122.59172201153967
292.903,292.903,268.20978221547506,176.9178851041525,123.01840348960368
292.91,292.91,269.29420338267545,177.49425350601297,123.38755448556027
292.916,292.916,270.28439370693536,178.0699080681714,123.69733262415177
292.923,292.923,271.1773768162564,178.63397827451544,123.95290758964275
292.93,292.93,271.97922047269407,179.1761240746873,124.1640502385352
292.937,292.937,272.70416029572675,179.68600697659645,124.34315527603131
292.943,292.943,273.3727714605507,180.15311327843168,124.50396474887718
292.95,292.95,274.00848193850265,180.5666616121849,124.66075817723912
292.957,292.957,274.63232490305666,180.91521518107518,124.82750723319717
292.964,292.964,275.2567511586524,181.18608170771014,125.01650576206306
292.97,292.97,275.8804357030372,181.36499378475025,125.23634686659615
292.977,292.977,276.48920400200547,181.42981318525761,125.48684986577824
292.984,292.984,277.05116786064036,181.52793574755918,125.7438653977364
292.991,292.991,277.4731667492948,181.87208481789483,125.93627309300743
292.997,292.997,277.55557883844523,182.5471692863895,125.94264329496474
293.004,293.004,278.07248087587016,183.59040344184928,126.25329030352668
293.011,293.011,279.38992403120267,184.96290249881602,126.9578025968586
293.018,293.018,281.561865099453,186.54997544309418,128.03866571090256
293.024,293.024,284.47172767590763,188.18851306347707,129.387600268772
293.031,293.031,287.8591700841819,189.71375937606203,130.84047906545672
293.038,293.038,291.37981470665517,191.00121130278276,132.22045198948098
293.045,293.045,294.6737177977969,191.98491840763023,133.3728425085096
293.051,293.051,297.42173875068113,192.65435116930792,134.1877979879139
293.058,293.058,299.38477579941525,193.04120260464197,134.6120373205504
293.065,293.065,300.42796577848213,193.20324885882786,134.64989761445398
293.072,293.072,300.5299026288615,193.20820635277894,134.9453841383965
293.078,293.078,301.2835164666463,193.2948860187583,135.48868128867215
293.085,293.085,302.71942969513293,193.41553620460712,136.18143107084398
293.092,293.092,304.605081181837,193.52196085285013,136.930949319665
293.099,293.099,306.6815123271283,193.57814703442102,137.66295763750327
293.105,293.105,308.69840588358966,193.59178940047772,138.32639127889666
293.112,293.112,310.44897770040257,193.6752960126777,138.89161315465807
293.119,293.119,311.79936678406114,193.80861158473488,139.3457741931743
293.126,293.126,312.70336720788436,193.95469861744934,139.68888906080943
293.132,293.132,313.19731618557756,194.0672253847741,139.93183991909996
293.139,293.139,313.37998900660955,194.1010650892762,140.0955104620756
293.146,293.146,313.3862736699797,194.18058712267427,140.20973504801458
293.153,293.153,313.4125643187181,194.39273903233192,140.3108115962873
293.159,293.159,313.48182888265154,194.74090743616517,140.436962545385
293.166,293.166,313.7412665200701,195.21487091342718,140.6224003784864
293.173,293.173,314.24378005979526,195.79417213534813,140.8915084234339
293.18,293.18,315.00145992777846,196.45184563135672,141.25463981847048
293.186,293.186,315.99251657976635,197.15819886792352,141.70645036864732
293.193,293.193,317.17028507409145,197.8842856395517,142.22692869187205
293.2,293.2,318.47156936682165,198.60457210422624,142.7849094219698
293.207,293.207,319.8245604330298,199.2984696835014,143.34360508749648
293.213,293.213,321.1578277479904,199.95073075371877,143.86703854992592
293.22,293.22,322.4097026660449,200.550794789442,144.32565495627134
293.227,293.227,323.5352570341296,201.09141359836195,144.69963016202072
293.234,293.234,324.50879143429927,201.56710961946672,144.97942575582346
293.24,293.24,325.3217099313277,201.97279941773468,145.1641881973953
293.247,293.247,325.97703735326354,202.3027752430146,145.25911325806493
293.254,293.254,326.4829232768739,202.55011259263657,145.27292364095425
293.261,293.261,326.8478667590174,202.70619844744073,145.32964846536922
293.267,293.267,327.07857179580657,202.76005234385622,145.44532192397784
293.274,293.274,327.17893942818614,202.82249835796762,145.607983411773
293.281,293.281,327.2090661611624,203.0183514786346,145.8061445037281
293.288,293.288,327.3750791769159,203.36612172839835,146.02969854929987
293.294,293.294,327.68762076367244,203.8850105201098,146.269855878172
293.301,293.301,328.15839771104834,204.60015132149917,146.5200646359699
293.308,293.308,328.8045453690877,205.55593406536354,146.78364370343544
293.315,293.315,329.6936976723452,206.82628014766368,147.08369478321416
293.321,293.321,330.99416167411346,208.48556572357745,147.46329373170752
293.328,293.328,332.92654789086725,210.53014542197673,147.97374553881897
293.335,293.335,335.62069669854986,212.8203307369946,148.6529523846385
293.342,293.342,339.00433085342576,215.10818499653692,149.4999214106944
293.348,293.348,342.79859321392144,217.12779359614,150.461471344327
293.355,293.355,346.59854412668284,218.68090731816667,151.44175318586383
293.362,293.362,349.98747573096205,219.67274273372433,152.32934876367437
293.369,293.369,352.63932940203244,220.09921768255904,153.02797546580743
293.375,293.375,354.38259335585974,220.18168995234902,153.47867235299967
293.382,293.382,355.2188471617593,220.6816066828172,153.66833983945858
293.389,293.389,355.29630463018884,221.49021336679246,153.71156466197812
293.396,293.396,355.7441579219029,222.49525446868682,153.93228318217444
293.402,293.402,356.4711829762986,223.59297451516713,154.26565880889308
293.409,293.409,357.2780636194484,224.69878467749584,154.6532439383753
293.416,293.416,358.0458124186887,225.7557550435775,155.0524575516305
293.423,293.423,358.7425020088541,226.73980816308915,155.4387802467844
293.429,293.429,359.4092339954829,227.6601720770502,155.80294803788362
293.436,293.436,360.13390646294926,228.5538753622902,156.1463136781106
293.443,293.443,361.0207396792585,229.4750215636648,156.47607322437213
293.45,293.45,362.16186269134954,230.48128570278234,156.80062298764273
293.456,293.456,363.6164593459865,231.61992476477772,157.12569939998042
293.463,293.463,365.40030600505713,232.91564909023646,157.45237440780144
293.47,293.47,367.48428275710637,234.36318661517205,157.7769024989341
293.477,293.477,369.80063373733145,235.92764909472106,158.09233223984805
293.483,293.483,372.2389291215158,237.54908886528497,158.38580658084624
293.49,293.49,374.59580492151656,239.13472533318878,158.62204624040712
293.497,293.497,376.5389455966448,240.54788484519295,158.7324945741542
293.504,293.504,377.7284875443879,241.63786363269512,158.82351307133516
293.51,293.51,378.0347965138493,242.30011789721092,159.15309129954016
293.517,293.517,378.4617329308524,242.50502771381684,159.69506829602744
293.524,293.524,379.31430252962156,242.7227682780965,160.36550479411002
293.531,293.531,380.26961992891006,243.28560155648995,161.04733640855773
293.537,293.537,381.06169387830585,244.09594083687907,161.62267982158377
293.544,293.544,381.5155720727547,245.054106175759,162.00169685518304
293.551,293.551,381.56695624486713,246.0653081002168,162.14007674636096
293.558,293.558,381.877535047244,247.0417384486544,162.23694692250643
293.564,293.564,382.4353740461681,247.908261786613,162.5208786902153
293.571,293.571,383.09021559103064,248.6100427632358,162.91609709135744
293.578,293.578,383.69076284654767,249.11574564899257,163.33915228581515
293.585,293.585,384.1108865299309,249.41615000044877,163.717724258591
293.591,293.591,384.26600587068003,249.52123729111258,164.00309051931708
293.598,293.598,384.41244271322216,249.58616326341328,164.17453309611778
293.605,293.605,384.8516974818989,249.7856310563244,164.23699871506238
293.612,293.612,385.53981127911305,250.0796066858573,164.25938375430306
293.618,293.618,386.4111533541906,250.42834687089723,164.33142761462207
293.625,293.625,387.39162688471066,250.79593532301934,164.4149008255888
293.632,293.632,388.40961805279983,251.15257903938718,164.4754162447228
293.639,293.639,389.40404041455713,251.4759365418415,164.48740512827607
293.645,293.645,390.32929625440215,251.7516290740839,164.5381222813292
293.652,293.652,391.15721085122374,251.97289785052516,164.6542754478636
293.659,293.659,391.8760473327031,252.13940745225995,164.82912703691272
293.666,293.666,392.487212282806,252.25549848440656,165.04953549892127
293.672,293.672,393.00096617453494,252.32838833774866,165.29907454881436
293.679,293.679,393.43240989183386,252.36664751393815,165.56056617610207
293.686,293.686,393.79835191020476,252.37901536802872,165.81789655220467
293.693,293.693,394.11507616446363,252.3845116137857,166.0572312677778
293.699,293.699,394.3968775055166,252.40117647317146,166.2677527653437
293.706,293.706,394.65531563895286,252.42398835488743,166.4420888261292
293.713,293.713,394.8990745624423,252.44962345511615,166.57660075861543
293.72,293.72,395.13417272478017,252.476211505832,166.6715061341341
293.726,293.726,395.36427744849743,252.5029341376995,166.73064051740474
293.733,293.733,395.59102547711757,252.5295464690172,166.76070055803453
293.74,293.74,395.81450084205227,252.5558797024456,166.76997063464214
293.747,293.747,396.03403969160115,252.58143126908666,166.77320732328528
293.753,293.753,396.2491661759381,252.60517116966415,166.782159589814
293.76,293.76,396.4602592949399,252.6255986705121,166.7924599473199
293.767,293.767,396.6686578844832,252.64099574136765,166.80233702694065
293.774,293.774,396.8760552776313,252.6498288444803,166.81216738982363
293.78,293.78,397.08335417119014,252.65124079142805,166.82364705549202
293.787,293.787,397.28959628228125,252.65696637939843,166.8387810304923
293.794,293.794,397.4915776201876,252.66810636923557,166.85892018611932
293.801,293.801,397.68421782700324,252.68149333435215,166.88412630763298
293.807,293.807,397.8613825326696,252.6928580684467,166.91306674193868
293.814,293.814,398.01696367258535,252.69743049596985,166.94335956261006
293.821,293.821,398.14602647928467,252.70421187201782,166.97208416829872
293.828,293.828,398.24561971368996,252.72603064088844,166.99628617294115
293.834,293.834,398.3150288376396,252.76520956328923,167.01342308043505
293.841,293.841,398.355612765758,252.8224693751226,167.02168045386045
293.848,293.848,398.370284812164,252.8968824444415,167.02319447586066
293.855,293.855,398.3779050207611,252.98600753322714,167.03425178445596
293.861,293.861,398.40422659633765,253.08622571740617,167.05322773059828
293.868,293.868,398.44575492319,253.19320383245682,167.07692566782092
293.875,293.875,398.49854193148457,253.30234224987976,167.10089287518352
293.882,293.882,398.55767739186905,253.4091473287131,167.12037947691024
293.888,293.888,398.6173799235425,253.5095606114663,167.13157480435584
293.895,293.895,398.67167445063643,253.6002393721362,167.1325520741861
293.902,293.902,398.7152710300432,253.67874511185167,167.14152501022053
293.909,293.909,398.7442305412177,253.74361301024223,167.15831178020505
293.915,293.915,398.7561749072523,253.79426122898494,167.17967961410392
293.922,293.922,398.7622433863266,253.83074861752704,167.20229362941652
293.929,293.929,398.7862481209457,253.85352796685717,167.22369183237032
293.936,293.936,398.82729731519754,253.8633172775304,167.24299247588377
293.942,293.942,398.88395390547583,253.8655897379078,167.26115646589184
293.949,293.949,398.9545641038348,253.8788094860374,167.28072265253942
293.956,293.956,399.0374588512983,253.90164017730805,167.3050818369904
293.963,293.963,399.1308858257389,253.9324728595106,167.33754431133144
293.969,293.969,399.2328199148997,253.96945789109628,167.38051818934494
293.976,293.976,399.3408373828067,254.01065175755767,167.43505675660236
293.983,293.983,399.45205274256426,254.05423660297097,167.50093192218364
293.99,293.99,399.5630578501058,254.09871645107384,167.577199201189
293.996,293.996,399.6699142268769,254.14297866047812,167.6629916991856
294.003,294.003,399.76831560746155,254.18617960042073,167.75821559402812
294.01,294.01,399.85391398011416,254.2275126104484,167.86388189008736
294.017,294.017,399.92268012615705,254.2659590133556,167.98185389110802
294.023,294.023,399.97122788416266,254.30011618803772,168.1139818166792
294.03,294.03,399.9970727951641,254.32815307601527,168.26095895714857
294.037,294.037,399.99873135940453,254.3478962450079,168.4214434091411
294.044,294.044,400.02184046063894,254.35704886501884,168.5918796802025
294.05,294.05,400.0695585958905,254.3605654732205,168.76710082340443
294.057,294.057,400.1410444197093,254.3782158928377,168.9414125297719
294.064,294.064,400.2347017898916,254.4104990484774,169.10972415773142
294.071,294.071,400.34806407491214,254.45671026271003,169.268425555977
294.077,294.077,400.4777157748306,254.51484877352473,169.4158866293444
294.084,294.084,400.61932703360833,254.58168172524975,169.5525383959224
294.091,294.091,400.76784078456876,254.65296147183187,169.68053462718797
294.098,294.098,400.91778645702533,254.72381183201156,169.803056586012
294.104,294.104,401.06372261805456,254.78928291363783,169.9234223997918
294.111,294.111,401.20080342511045,254.84499188634808,170.04426712666688
294.118,294.118,401.3253584633826,254.88773873930168,170.16702197146478
294.125,294.125,401.43536707113003,254.91600194259857,170.2917203110456
294.131,294.131,401.530776921358,254.9302077777693,170.41706617992455
294.138,294.138,401.6135860341721,254.93267854591633,170.54075286101457
294.145,294.145,401.6875572260471,254.93811573434832,170.65997791525464
294.152,294.152,401.7575488754185,254.94678485251586,170.7720171954484
294.158,294.158,401.8286176886287,254.95395512513085,170.87472080559732
294.165,294.165,401.9051059856554,254.95561036527346,170.96680971742796
294.172,294.172,401.98994477577634,254.96219318273324,171.04792497136418
294.179,294.179,402.0843728545807,254.97813686504966,171.11855103599882
294.185,294.185,402.18805951399946,255.00294611099298,171.17996430334455
294.192,294.192,402.29943595861283,255.03479137426996,171.2341641332561
294.199,294.199,402.4161262463659,255.07103430031916,171.28365679606475
294.206,294.206,402.5354898480737,255.108826971496,171.3311371500477
294.212,294.212,402.65518800365857,255.1456049266211,171.37926868439305
294.219,294.219,402.7735517628529,255.1793800478847,171.4306785779595
294.226,294.226,402.88963073597336,255.20883209946678,171.48806495808395
294.233,294.233,403.0029935601819,255.2332481628425,171.5541799033988
294.239,294.239,403.1134118456896,255.2523989930789,171.63149727535654
294.246,294.246,403.22060376756673,255.26646281474987,171.72155415664116
294.253,294.253,403.3242480501359,255.27604625450357,171.82419314435114
294.26,294.26,403.4242945701972,255.2822488321454,171.93707354159704
294.266,294.266,403.52134408288697,255.286688284909,172.0557202496141
294.273,294.273,403.6168580509514,255.2914444230021,172.1741529646435
294.28,294.28,403.7130925562605,255.29890090116433,172.28596000396882
294.287,294.287,403.81273971509796,255.3114717585733,172.385542350519
294.293,294.293,403.91838275266184,255.33125584139088,172.46915330518146
294.3,294.3,404.03197309737976,255.35971228889608,172.5354138945047
294.307,294.307,404.1544606469993,255.3974090643235,172.5852236989926
294.314,294.314,404.28559968783713,255.44385334060104,172.62123596586187
294.32,294.32,404.42389930017697,255.49743892531563,172.64712980233128
294.327,294.327,404.56670146223087,255.5555614110311,172.66683736139308
294.334,294.334,404.7104929568406,255.61491706693968,172.68385677804926
294.341,294.341,404.85149241343066,255.67193477520016,172.70080308731565
294.347,294.347,404.9863119125393,255.72325266862958,172.71927642150783
294.354,294.354,405.1124398319172,255.76617887012796,172.7399695214107
294.361,294.361,405.2284428992171,255.7990600737682,172.76287772481228
294.368,294.368,405.3339645363748,255.8214389804097,172.78754548510906
294.374,294.374,405.42959235037586,255.83397161033,172.81330076180282
294.381,294.381,405.51662432680837,255.83820950080744,172.8394054873056
294.388,294.388,405.5968420024194,255.84007273415696,172.86511847304462
294.395,294.395,405.67229420847616,255.84548452397325,172.88972823166546
294.401,294.401,405.74505883574597,255.85187089106702,172.91260711028357
294.408,294.408,405.81714350377763,255.85698875523428,172.93333048947648
294.415,294.415,405.890511733187,255.85919851359887,172.95183961727435
294.422,294.422,405.9669490517769,255.86080918176398,172.96848653758002
294.428,294.428,406.0477521922716,255.86645994843738,172.98382026706545
294.435,294.435,406.1335237504644,255.87585023340552,172.99821753523432
294.442,294.442,406.22417370130495,255.88843014362357,173.0115838302418
294.449,294.449,406.31902820695746,255.90366702759633,173.0232633143685
294.455,294.455,406.4169785449604,255.9211559211863,173.03219788075694
294.462,294.462,406.51663251703974,255.9405296648372,173.03724756609284
294.469,294.469,406.6164482933811,255.9613279464955,173.03741033868948
294.476,294.476,406.71486595860006,255.98302130873307,173.04316789798253
294.482,294.482,406.8105020600309,256.00521324730204,173.05647724908096
294.489,294.489,406.90242981465843,256.0278889969187,173.08014695425535
294.496,294.496,406.99040062959665,256.05158338334263,173.1182439091713
294.503,294.503,407.0748848021221,256.0773953107526,173.17542233707988
294.509,294.509,407.15695908525015,256.10677458384566,173.2556692388594
294.516,294.516,407.23802777994234,256.14108160550904,173.3609217329489
294.523,294.523,407.3193255754039,256.1810931882321,173.4900735450642
294.53,294.53,407.4013092258866,256.2266565301855,173.63876879105598
294.536,294.536,407.4831651610347,256.27653628877385,173.800059794441
294.543,294.543,407.5626570180981,256.3284007345035,173.9655958748818
294.55,294.55,407.63641999778054,256.37895076660897,174.1268244584705
294.557,294.557,407.7005478445167,256.42424149285273,174.2758841368564
294.563,294.563,407.75121501732633,256.4601975670035,174.40620194267996
294.57,294.57,407.7852347034026,256.48324785867584,174.51293822154202
294.577,294.577,407.8005638495069,256.4909453403976,174.5933313168529
294.584,294.584,407.8044019452284,256.49945206818165,174.6468789884806
294.59,294.59,407.8260577936722,256.52319204018585,174.67526897862635
294.597,294.597,407.862318219261,256.5594678657385,174.6820055804856
294.604,294.604,407.9083210627247,256.60426718661313,174.6922552050853
294.611,294.611,407.95805812957906,256.65283358523016,174.71442244948858
294.617,294.617,408.0051325339713,256.70019789742696,174.7436098577622
294.624,294.624,408.04354599577937,256.7415707937851,174.7752710779926
294.631,294.631,408.0682353356748,256.7726147895834,174.80506871656203
294.638,294.638,408.07529986926346,256.7896603293137,174.8286920523213
294.644,294.644,408.0885451638884,256.78993237161365,174.84191414570674
294.651,294.651,408.1235795040973,256.8080556734151,174.8428510745922
294.658,294.658,408.1806713176216,256.8448304817527,174.86064148098993
294.665,294.665,408.2588206843127,256.89909271798297,174.89633709001797
294.671,294.671,408.3558280591463,256.9683845927812,174.94903202323812
294.678,294.678,408.4686697458507,257.0492323116719,175.0159948818482
294.685,294.685,408.5940346194132,257.1375579647997,175.09320936096654
294.692,294.692,408.72887206931836,257.22915992929035,175.17600362030092
294.698,294.698,408.8707769928508,257.3201650678471,175.25945598682327
294.705,294.705,409.0178161931444,257.40732932915046,175.33865090194692
294.712,294.712,409.16782991796026,257.4880330483166,175.40904478241524
294.719,294.719,409.3176294154083,257.5599651156955,175.46693420624163
294.725,294.725,409.46225465802826,257.62064008916053,175.50981185807686
294.732,294.732,409.5944660567144,257.66691989937385,175.53650095081025
294.739,294.739,409.7047741290791,257.6947488465052,175.54717344940565
294.746,294.746,409.78205375587027,257.6992615940419,175.5508900874175
294.752,294.752,409.81457557814764,257.7232779992804,175.56570657173106
294.759,294.759,409.837851612951,257.78072517012765,175.5866761061024
294.766,294.766,409.92579992578135,257.87548324562965,175.60773289402377
294.773,294.773,410.0835956236524,258.009781508686,175.6227234565627
294.779,294.779,410.3115586928617,258.18391590367304,175.62649865574843
294.786,294.786,410.60487985947873,258.3966355649621,175.6373404417181
294.793,294.793,410.95427780509016,258.64635168307376,175.66405456814664
294.8,294.8,411.3476014555706,258.9331869526008,175.7055866750806
294.806,294.806,411.7726691542649,259.2615110539833,175.7587616978192
294.813,294.813,412.220804476266,259.64189448853165,175.81876278448365
294.82,294.82,412.68942821529106,260.09171341910593,175.87950543700396
294.827,294.827,413.1823559812646,260.6344727349369,175.93369263697625
294.833,294.833,413.7075086002771,261.2972453413573,175.97268807272704
294.84,294.84,414.2725946102206,262.1052025679504,175.9864977959534
294.847,294.847,414.88031124706055,263.0711457015974,176.00719254447876
294.854,294.854,415.51934877339966,264.17088785396845,176.05918013340434
294.86,294.86,416.13673776597955,265.2963117679505,176.10508838431554
294.867,294.867,416.59760625291744,266.2190219617719,176.1381328273701
294.874,294.874,416.685556427972,266.6375645422857,176.317175413775
294.881,294.881,417.1860778631884,266.96367444175337,176.65084719371066
294.887,294.887,418.3682485933911,268.1023101045338,177.0696591277081
294.894,294.894,420.13931491344374,269.9376898288985,177.4503762759305
294.901,294.901,422.2612426005262,272.226362973912,177.66759791010406
294.908,294.908,424.44489179801286,274.66465471226786,177.6935942001316
294.914,294.914,426.42672175282684,276.9499780339393,177.97534188389986
294.921,294.921,428.0095050840568,278.83311086074144,178.4644460048192
294.928,294.928,429.0801184808016,280.15501333542386,179.07484806507708
294.935,294.935,429.6120863121348,280.8619095906487,179.70931915828697
294.941,294.941,429.65345551641514,280.99743219709757,180.27962385371933
294.948,294.948,430.0030411329988,281.3178082352172,180.71883875856625
294.955,294.955,430.6175196573018,281.9400971385756,180.9875649507419
294.962,294.962,431.3665329654475,282.7035970865733,181.07455834098266
294.968,294.968,432.1341778243048,283.4659129567262,181.15655604710332
294.975,294.975,432.83269200253426,284.11929696269897,181.37777543662654
294.982,294.982,433.407787617163,284.59832274893836,181.69930047104825
294.989,294.989,433.83628582756427,284.8796565950685,182.0802947286952
294.995,294.995,434.1202622748744,284.975385194828,182.4833040916551
295.002,295.002,434.2801553519415,285.0283675615504,182.8773330245435
295.009,295.009,434.34709545866133,285.18026178480176,183.23906812322488
295.016,295.016,434.35561229276976,285.37952781405016,183.55271315076592
295.022,295.022,434.37314612417424,285.5819262129016,183.80893922921518
295.029,295.029,434.39034263625217,285.75667236180715,184.00374666471828
295.036,295.036,434.391406480288,285.88910014321687,184.1381639080205
295.043,295.043,434.4190643344814,285.9794725899414,184.21876080332132
295.049,295.049,434.47272685281297,286.03876232529274,184.25774352153584
295.056,295.056,434.54577333515533,286.08269316532557,184.27141960916217
295.063,295.063,434.6291420927791,286.12577032167235,184.2767617904905
295.07,295.07,434.7127031708147,286.1782754906329,184.28711770282055
295.076,295.076,434.78519516449245,286.24670137448663,184.30891253111355
295.083,295.083,434.8364928283555,286.3340593039171,184.3405650153767
295.09,295.09,434.861643916402,286.4380854620777,184.37402340088158
295.097,295.097,434.8629682437577,286.54917859443344,184.39856558280803
295.103,295.103,434.87594071024864,286.6501840248871,184.40529710898815
295.11,295.11,434.88787672105576,286.7185043021467,184.42013076415057
295.117,295.117,434.89469636510387,286.7298801223084,184.45400141889127
295.124,295.124,434.9367067010921,286.7970524131757,184.4989120210729
295.13,295.13,435.0274371085759,286.9580531366995,184.54344938228425
295.137,295.137,435.1771957640002,287.21968733593286,184.5755798880027
295.144,295.144,435.3925573595622,287.57988972065334,184.58554567044777
295.151,295.151,435.6755512562603,288.02882960524596,184.60305146404465
295.157,295.157,436.0234179435424,288.55100966852314,184.64788453318124
295.164,295.164,436.42924062155197,289.12776927287206,184.71476893598503
295.171,295.171,436.88313990806745,289.7397360669784,184.79499079944225
295.178,295.178,437.3739572860815,290.36906433550865,184.87919183693558
295.184,295.184,437.89093989066123,291.00157158992886,184.96035152700802
295.191,295.191,438.42456742865596,291.628644086678,185.03577853509222
295.198,295.198,438.9668354699617,292.24862835438057,185.10744627625803
295.205,295.205,439.51219352066477,292.8680097445067,185.18077612107092
295.211,295.211,440.05895183149545,293.5021747842902,185.26245958755717
295.218,295.218,440.60964268803514,294.1742042663073,185.3581281803625
295.225,295.225,441.17034261985816,294.9098382452292,185.47123441582193
295.232,295.232,441.74639532332907,295.7218852635294,185.60584157863627
295.238,295.238,442.32191127824615,296.57163943179165,185.7729851290715
295.245,295.245,442.822667586828,297.3233388399885,185.99048887953543
295.252,295.252,443.1065184168297,297.75656024572055,186.2672502904778
295.259,295.259,443.18664329881614,297.8475883819135,186.5831649845326
295.265,295.265,443.6867659799325,298.5460897344494,186.8859425149361
295.272,295.272,444.5375061686011,299.784148590383,187.1093154498391
295.279,295.279,445.5941677681882,301.38609437522115,187.19932607219943
295.286,295.286,446.7036822034718,303.12934063689903,187.2632574024436
295.292,295.292,447.73641856363497,304.794526137189,187.46023499234838
295.299,295.299,448.59315398785856,306.2016757140382,187.73632887907064
295.306,295.306,449.2099799592657,307.23277868420513,188.02416666464134
295.313,295.313,449.56261058985075,307.84078989399984,188.2620578503402
295.319,295.319,449.6640575970047,308.045362779203,188.40597735116359
295.326,295.326,449.77228679425025,308.1734892469422,188.43447492044373
295.333,295.333,450.0315923217571,308.53421120276084,188.5208739545169
295.34,295.34,450.3774904629291,309.01958402512,188.7039685988049
295.346,295.346,450.74930144069464,309.53094036056206,188.95377310275876
295.353,295.353,451.0971587514718,309.98988265323806,189.23468638462072
295.36,295.36,451.3857039716015,310.3432420563993,189.51131931031358
295.367,295.367,451.5948425219652,310.5632707406131,189.75339791499343
295.373,295.373,451.7183705804357,310.64489184527764,189.93907698753992
295.38,295.38,451.76134491272734,310.6882120879124,190.05611123931655
295.387,295.387,451.7857713224253,310.82938071924985,190.1010518012439
295.394,295.394,451.8594436674237,311.03359277925875,190.12468381868888
295.4,295.4,451.9623828768068,311.2653700834332,190.2083710462121
295.407,295.407,452.07690383649214,311.4958014182755,190.340276098325
295.414,295.414,452.1915876953803,311.70813005825545,190.5067122774516
295.421,295.421,452.3027195847797,311.8997614467252,190.69398482998602
295.427,295.427,452.41246287099807,312.0794412019844,190.89045850129628
295.434,295.434,452.5250070458136,312.260446602817,191.08776026857663
295.441,295.441,452.64303086310787,312.45283478921283,191.28062732508533
295.448,295.448,452.76553754681794,312.6576579854665,191.4659609178227
295.454,295.454,452.8867058931881,312.86443472523524,191.6418218188766
295.461,295.461,452.9957932535653,313.0519653384159,191.80690626620998
295.468,295.468,453.0781180535711,313.19192299281974,191.9608145635769
295.475,295.475,453.11705159863465,313.2541349698476,192.1048602755765
295.481,295.481,453.1374175428607,313.296132209235,192.24262045108347
295.488,295.488,453.22966670127965,313.46063378290074,192.3795225787191
295.495,295.495,453.401090317955,313.7552813168613,192.52139400321823
295.502,295.502,453.6530390117311,314.17683064469685,192.67274806522678
295.508,295.508,453.9816637931985,314.7130206100803,192.83592318739127
295.515,295.515,454.37888806272554,315.3458107353772,193.0111686098048
295.522,295.522,454.83331738164566,316.0547676370844,193.19668385006617
295.529,295.529,455.33169542336304,316.8199188438936,193.3882064559762
295.535,295.535,455.8603826772776,317.62452485494094,193.57878914790416
295.542,295.542,456.4064105655048,318.4580748274492,193.75938836778977
295.549,295.549,456.9579881303455,319.3160490062272,193.91925083515392
295.556,295.556,457.50017256920677,320.1846913018794,194.0422616604464
295.562,295.562,457.99708120949856,321.00354174472506,194.09986385741234
295.569,295.569,458.3682802052097,321.6393846638343,194.14570794850403
295.576,295.576,458.4981725327052,321.92530295886877,194.32054921644593
295.583,295.583,458.6997787360198,322.10535240459836,194.61285317318433
295.589,295.589,459.23807861497534,322.76662354067446,194.9688132772885
295.596,295.596,460.0318236396292,323.8321378168326,195.30798782557187
295.603,295.603,460.9571700255448,325.16341429182864,195.54847362304048
295.61,295.61,461.88991766358447,326.59180165866184,195.63219998468034
295.616,295.616,462.7261340870508,327.9494038251161,195.72188557190077
295.623,295.623,463.38990630470204,329.09601112727637,195.9574898176617
295.63,295.63,463.83860562058794,329.93727761459,196.28025599527217
295.637,295.637,464.0654066985118,330.43316593276273,196.62074110639793
295.643,295.643,464.0949663647332,330.5968585678917,196.9172304550286
295.65,295.65,464.21727825168034,330.7093309697497,197.1269389038871
295.657,295.657,464.4375447200146,331.0158195424809,197.22971271150476
295.664,295.664,464.702768700973,331.4260935660763,197.23362546734427
295.67,295.67,464.9674670557868,331.85712654091014,197.32938444324787
295.677,295.677,465.1980291136247,332.2435084768286,197.49413509782684
295.684,295.684,465.37426478537566,332.5424753818479,197.70242289918326
295.691,295.691,465.4881458593265,332.73431717041996,197.92999889856853
295.697,295.697,465.541184952755,332.8195339633701,198.15616910291158
295.704,295.704,465.5412889974707,332.8247608185474,198.3648011011176
295.711,295.711,465.5824182865387,332.89402246659506,198.54388005739912
295.718,295.718,465.64929865977905,332.9977982246978,198.68374576921647
295.724,295.724,465.7243892969318,333.11098933087345,198.77559062272402
295.731,295.731,465.7953042243455,333.21607475912316,198.81194874634826
295.738,295.738,465.8583831997716,333.3007653620422,198.83473238933945
295.745,295.745,465.91394003201253,333.3558082814032,198.913583263395
295.751,295.751,465.9621877588089,333.3764489887866,199.0377285676829
295.758,295.758,466.00344794002007,333.3886932875609,199.19061206426196
295.765,295.765,466.0376728198486,333.427268286535,199.35310279638102
295.772,295.772,466.06232488618383,333.483609789195,199.50623244020807
295.778,295.778,466.0724612733636,333.5495509121176,199.632992858959
295.785,295.785,466.08092127003914,333.6183509940083,199.71963119186265
295.792,295.792,466.10806893054627,333.6847586369015,199.75686823301623
295.799,295.799,466.14951558650887,333.7448713040464,199.77278226834244
295.805,295.805,466.19790413422567,333.79634943525417,199.83959044533785
295.812,295.812,466.24490282397056,333.83870844645264,199.94952703584332
295.819,295.819,466.2828375189595,333.8729823961056,200.0908718526893
295.826,295.826,466.3056181057184,333.9007717760215,200.25018143235707
295.832,295.832,466.30916340677464,333.92339447646543,200.41448193124933
295.839,295.839,466.3264344010857,333.9416111665021,200.57279351797544
295.846,295.846,466.36301439230954,333.95581101408186,200.71684182868293
295.853,295.853,466.414241415616,333.96632392459605,200.84127214222246
295.859,295.859,466.4731502000793,333.9736205460167,200.94371810657088
295.866,295.866,466.531979499669,333.9783492994642,201.0247886783704
295.873,295.873,466.583750666565,333.9813659432047,201.0878221927485
295.88,295.88,466.6238254351433,333.98397943379183,201.13829825281917
295.886,295.886,466.65155072980446,333.9885518739783,201.1831254745766
295.893,295.893,466.6703282582867,333.9992774578811,201.22998919844744
295.9,295.9,466.68351821496725,334.02163253082784,201.2863075615249
295.907,295.907,466.68978048035103,334.0592246497977,201.35745982823414
295.913,295.913,466.69333016337936,334.1113617405275,201.44501642987024
295.92,295.92,466.70510196166833,334.1748775782563,201.54659093495223
295.927,295.927,466.72265996816606,334.24658589589046,201.65792980736492
295.934,295.934,466.7492017068581,334.32252306547775,201.77530053168826
295.94,295.94,466.7902580427069,334.3968653119805,201.89625929188094
295.947,295.947,466.8469966589528,334.46335425294006,202.01917970320486
295.954,295.954,466.9161135859536,334.5175447965139,202.142570156035
295.961,295.961,466.9933895624334,334.55791237460153,202.26439935298097
295.967,295.967,467.0753481155987,334.58591150739204,202.38133361829904
295.974,295.974,467.1593299750354,334.60529495987123,202.48821918368517
295.981,295.981,467.2432093836889,334.6207445629257,202.57826510186243
295.988,295.988,467.3245899265738,334.6364440216168,202.64378615169073
295.994,295.994,467.4001342865265,334.6552075416939,202.67697482767775
296.001,296.001,467.46575065058477,334.67823258952603,202.68347577120258
296.008,296.008,467.5174579522394,334.7053579820745,202.73599251384152
296.015,296.015,467.55247963936665,334.7355825292744,202.83900528051868
296.021,296.021,467.57011163803514,334.76752851360396,202.99418094171625
296.028,296.028,467.5720269942825,334.7997256328388,203.1995471462272
296.035,296.035,467.58212265043676,334.8307702158639,203.44906851795582
296.042,296.042,467.5993230423993,334.8594463810296,203.7327770652227
296.048,296.048,467.6184896739048,334.8848794626901,204.03749478661035
296.055,296.055,467.6350297332703,334.90673863198646,204.34806566078296
296.062,296.062,467.6452216958809,334.9254187790192,204.64892824272098
296.069,296.069,467.6459987670041,334.9421009762742,204.9257634780623
296.075,296.075,467.6574094370774,334.95864190040135,205.16690769296818
296.082,296.082,467.6834182445283,334.9773055518057,205.36433847772648
296.089,296.089,467.72551492949117,335.000378272118,205.5141873251454
296.096,296.096,467.7836192439316,335.02971783457474,205.6167747773489
296.102,296.102,467.8556718162427,335.0663482405985,205.6762027100795
296.109,296.109,467.9375980065217,335.11025015804296,205.69960305075415
296.116,296.116,468.0237584747467,335.1603854681709,205.70307042853403
296.123,296.123,468.10795249982516,335.21487230954267,205.7233620949801
296.129,296.129,468.18466796212704,335.2712104679388,205.75068267849747
296.136,296.136,468.2499365939506,335.3264872118273,205.77652018132247
296.143,296.143,468.30151544526024,335.37758104337803,205.79454882895524
296.15,296.15,468.3387170180764,335.42145590414293,205.80128681114397
296.156,296.156,468.3622259392334,335.4555913763584,205.8061987146895
296.163,296.163,468.37400215568664,335.4784961502282,205.82017590962576
296.17,296.17,468.37733526550926,335.4901519525281,205.8383529401238
296.177,296.177,468.37764359670945,335.4921592116521,205.85467204822956
296.183,296.183,468.38000052135106,335.4968687076774,205.86319655014228
296.19,296.19,468.3921578489232,335.50464350639953,205.86707241591003
296.197,296.197,468.4206181801923,335.5118068747057,205.88585941650277
296.204,296.204,468.46958911020386,335.5152355842772,205.91980644651773
296.21,296.21,468.53998776220845,335.51776852693143,205.96717236702278
296.217,296.217,468.629488608268,335.5275030339401,206.02464729229223
296.224,296.224,468.73328922508733,335.5447680531686,206.0877438982346
296.231,296.231,468.84509091868165,335.5691514108357,206.15112712111397
296.237,296.237,468.9580630422738,335.5997283433909,206.2089660911226
296.244,296.244,469.06575689920294,335.6352754936681,206.25542102699112
296.251,296.251,469.16287181175244,335.6743815669815,206.28522739558068
296.258,296.258,469.24566636582506,335.7154692179296,206.29419264500805
296.264,296.264,469.3119832256851,335.7568426422811,206.30891927281013
296.271,296.271,469.36118805694576,335.79681062734085,206.3488495092557
296.278,296.278,469.39425018734204,335.8338181940422,206.4144057283019
296.285,296.285,469.41378010657996,335.86653924848866,206.5052707224575
296.291,296.291,469.4237303368359,335.89395504893764,206.62062459111365
296.298,296.298,469.4287419831889,335.91543974974115,206.7591496144747
296.305,296.305,469.43331791180873,335.93085966578934,206.9188513865343
296.312,296.312,469.44102785743956,335.9406813371094,207.09684054053446
296.318,296.318,469.4540184572303,335.9460097175935,207.2891986783709
296.325,296.325,469.4730321474658,335.948446798111,207.4909843540183
296.332,296.332,469.49776762766356,335.94978601534297,207.69637456945713
296.339,296.339,469.52721212197383,335.9516969352943,207.89892227712386
296.345,296.345,469.5598193520876,335.9555284465144,208.0919459275489
296.352,296.352,469.59369106200796,335.96223415646244,208.2690290334687
296.359,296.359,469.62692277636404,335.97235973271466,208.42451567550017
296.366,296.366,469.658084862014,335.98605465299937,208.55393159599373
