Time,Time,Sum Acc X,Sum Acc Y,Sum Acc Z
312.869,312.869,0.0006634967187413138,0.0012370562228368382,0.00010492027000733392
312.876,312.876,0.0041578858174015215,0.012540838637024343,0.0025260503605497764
312.883,312.883,0.0107079396013274,0.06345425184173735,0.017375245925251755
312.89,312.89,0.01284098371216355,0.21597076714807067,0.06658159024697616
312.896,312.896,0.05649519736096895,0.5606907613471801,0.1761531355899958
312.903,312.903,0.1903970201736583,1.1914286369310945,0.3578741100100766
312.91,312.91,0.45533847164724095,2.1691564836329995,0.5940392722073777
312.917,312.917,0.8575055753174675,3.493959178213396,0.8376330872673083
312.923,312.923,1.358224334444729,5.095556708765841,1.0269079752646801
312.93,312.93,1.8838174799462852,6.842748590783164,1.1035503477951811
312.937,312.937,2.348280456503225,8.568527921141529,1.1803725081829053
312.944,312.944,2.6773206091851622,10.104971493630075,1.4263176866522622
312.95,312.95,2.82309756305514,11.318315988410701,1.8308274794971058
312.957,312.957,2.878645626459005,12.133926034392728,2.361240626836363
312.964,312.964,3.126898496023635,12.544926443472997,2.9696708699813934
312.971,312.971,3.537663437009347,12.604483272805792,3.6008915172299263
312.977,312.977,4.065056972279165,12.802381870675749,4.20006688945216
312.984,312.984,4.654369437462415,13.146640446507377,4.719481461801774
312.991,312.991,5.250354672459107,13.530556472862981,5.123668947680893
312.998,312.998,5.806482859949362,13.866814834174871,5.392259865614133
313.004,313.004,6.29382771242728,14.095447902001288,5.520509879800001
313.011,313.011,6.708377097181279,14.186147697199392,5.522137234574795
313.018,313.018,7.07354367816951,14.236818279036983,5.6289537083536
313.025,313.025,7.432917725251979,14.412155953658445,5.805642638327665
313.031,313.031,7.832932124316702,14.682154664679583,6.013538418196503
313.038,313.038,8.30222803511303,15.006557784575877,6.2193778454010795
313.045,313.045,8.836693244383325,15.334063314566134,6.401993043830339
313.052,313.052,9.395899026123455,15.601465971672058,6.554712559806804
313.058,313.058,9.911398862945603,15.736943162540474,6.683551307353789
313.065,313.065,10.303109248003505,15.804901754594397,6.802747407726521
313.072,313.072,10.498195000404305,16.134968357478055,6.92925187652387
313.079,313.079,10.549219986616757,16.760971246896972,7.077405037914868
313.085,313.085,10.862857178808223,17.683966930366363,7.254791908792952
313.092,313.092,11.421358174368317,18.868616571556153,7.4612890465285275
313.099,313.099,12.172844931643146,20.24270410680536,7.691410690419204
313.106,313.106,13.014639974721243,21.6984406181882,7.930070910030359
313.112,313.112,13.771618866784472,23.090068540462426,8.13781592411748
313.119,313.119,14.227433366432662,24.236848967551058,8.249538972697234
313.126,313.126,14.231783068127683,24.959849035626085,8.296073096147381
313.133,313.133,14.710031637024212,25.14865743477888,8.528425301519984
313.139,313.139,15.527671108876731,25.48702728017294,8.93301149148292
313.146,313.146,16.4719469787116,26.231288750526033,9.468009361524555
313.153,313.153,17.335029472397647,27.192332224390636,10.078203505481486
313.16,313.16,17.9693653576208,28.171633581436037,10.705560854450228
313.166,313.166,18.306501086366346,29.00652149453746,11.295403227530398
313.173,313.173,18.347163718048023,29.59409214939796,11.798730568635984
313.18,313.18,18.55775780972368,29.896186284408973,12.173484720551993
313.187,313.187,18.955122402323745,29.9310694376465,12.387878912566174
313.193,313.193,19.473018750898586,30.10494057010225,12.425586155187505
313.2,313.2,20.05254448241673,30.40905341822741,12.561248013952614
313.207,313.207,20.644899644671025,30.76569701103147,12.846416638695153
313.214,313.214,21.2094594269312,31.115984537526785,13.239737285424436
313.22,313.22,21.70938131085719,31.430951779917553,13.689016104459567
313.227,313.227,22.10810200375809,31.713396190951112,14.140041946961727
313.234,313.234,22.369153506350088,31.991922839815732,14.545361011191863
313.241,313.241,22.459407991259994,32.311099888717024,14.871154684263058
313.247,313.247,22.564724162324264,32.72102235145748,15.101146675661726
313.254,313.254,22.877432427941315,33.2677430484789,15.236998585354526
313.261,313.261,23.393490972711767,33.985487645279434,15.29532163760393
313.268,313.268,24.091797969834065,34.89175056931187,15.302149664187388
313.274,313.274,24.93466390481473,35.98546038869275,15.318010360224525
313.281,313.281,25.87044365743414,37.24725792523546,15.330938381432256
313.288,313.288,26.83868635868169,38.63996076459372,15.340012715907848
313.295,313.295,27.775452088795966,40.106027561603746,15.385525729284915
313.301,313.301,28.61285389361837,41.56107318976353,15.486439051353937
313.308,313.308,29.271383433279098,42.889573718944646,15.6752336942585
313.315,313.315,29.65495629905684,43.95083794825091,15.989456772197165
313.322,313.322,29.66299649479403,44.59859820834104,16.44133945549125
313.328,313.328,30.10304151273461,44.715860878198306,16.989600749545975
313.335,313.335,30.999656975257366,45.173486496909334,17.542272636912866
313.342,313.342,32.28129881394358,46.148764902693046,17.991030540422635
313.349,313.349,33.80813655637534,47.48693451463542,18.25200740726355
313.355,313.355,35.40258862173923,48.969929731512075,18.290017639728514
313.362,313.362,36.88639515348633,50.365020325218396,18.459467469872152
313.369,313.369,38.114374278520536,51.47187465696307,18.782903747185955
313.376,313.376,38.99752645958489,52.156482665197565,19.186259753745055
313.382,313.382,39.5113395618821,52.36674204191358,19.590770260508588
313.389,313.389,39.68926747547655,52.6036372786275,19.925880997708685
313.396,313.396,39.77309330792621,53.19847034146612,20.139352562255734
313.403,313.403,40.0254459402763,54.02595646423831,20.204074089129232
313.409,313.409,40.35387674119686,54.95242209613735,20.28752057626248
313.416,313.416,40.68106117237484,55.858909657544146,20.49346661927047
313.423,313.423,40.95198652603378,56.65552162713853,20.779581785943844
313.43,313.43,41.13414251073311,57.28711928838408,21.099415752141738
313.436,313.436,41.21350895571445,57.73374568414603,21.413678837089503
313.443,313.443,41.235960767477316,58.00694058372078,21.695792949036925
313.45,313.45,41.34744662958271,58.1404121522478,21.933313480101077
313.457,313.457,41.53000515460538,58.17658843948239,22.127906716735826
313.463,313.463,41.76775845284677,58.19886485286924,22.292317694175285
313.47,313.47,42.05021414498734,58.25139174229189,22.443895056087335
313.477,313.477,42.372910439250695,58.31793788037274,22.597593549248593
313.484,313.484,42.736997426639405,58.39206299606329,22.760663232895958
313.49,313.49,43.147403417276806,58.47370620928881,22.930270375795825
313.497,313.497,43.60991724823997,58.56535256079048,23.09459244031408
313.504,313.504,44.12749866678239,58.6683258983699,23.2363965772527
313.511,313.511,44.69574897064262,58.78028653804226,23.337633248344666
313.517,313.517,45.298326237072274,58.894652596611884,23.383840033112982
313.524,313.524,45.904324661492154,59.00173564546527,23.400297938454408
313.531,313.531,46.46968277320711,59.09071191208908,23.478496276525533
313.538,313.538,46.943116637077466,59.15136370055243,23.608580768920582
313.544,313.544,47.27506314291534,59.1749938784254,23.772596253279527
313.551,313.551,47.426820197124464,59.19522066802078,23.946250476438415
313.558,313.558,47.476320282845485,59.264224916958,24.101345367693764
313.565,313.565,47.727296740043954,59.38571741498394,24.209028524176894
313.571,313.571,48.16011410291336,59.56379095349309,24.24427793151967
313.578,313.578,48.74090313502342,59.803779750277236,24.297155408754268
313.585,313.585,49.42971756421729,60.11034949456776,24.439972932171102
313.592,313.592,50.186567814668685,60.48359486068035,24.659886303968438
313.598,313.598,50.972798211790575,60.916593528884874,24.933094619158464
313.605,313.605,51.75006869625067,61.39640110972875,25.230883237695057
313.612,313.612,52.48096130382404,61.907202332846246,25.525261503968267
313.619,313.619,53.132744400862016,62.43331066056279,25.792606176866585
313.625,313.625,53.68241855241966,62.960850536429696,26.015258160737034
313.632,313.632,54.120205627362914,63.47828851285298,26.181915633374544
313.639,313.639,54.44997951040906,63.976458333097014,26.287484623486588
313.646,313.646,54.68670176778156,64.44851087338246,26.332514656935945
313.652,313.652,54.85188210235011,64.88991818303596,26.342856766172694
313.659,313.659,54.968479479711974,65.2984807794243,26.400272646320982
313.666,313.666,55.05656880543773,65.67424369875164,26.495145675035786
313.673,313.673,55.13075233489207,66.01934650105028,26.618311036221833
313.679,313.679,55.19969141338935,66.33787217369071,26.762348411811605
313.686,313.686,55.26721605657685,66.63563156392951,26.922169432009344
313.693,313.693,55.33385883558291,66.9197774542577,27.094881615976544
313.7,313.7,55.39795404228029,67.19821003662324,27.27907255474805
313.706,313.706,55.45622987371032,67.47878553130464,27.47382825523845
313.713,313.713,55.50427097878806,67.76840612055274,27.677856934048904
313.72,313.72,55.537133751506325,68.07214086429653,27.88895406496192
313.727,313.727,55.55012226846814,68.3925295952461,28.103825943194515
313.733,313.733,55.56067769418949,68.72917973022984,28.318171294840038
313.74,313.74,55.596879206450275,69.07871716621752,28.526945010618107
313.747,313.747,55.65923808151049,69.43511275733167,28.724729908470696
313.754,313.754,55.747267035992564,69.79038209080863,28.90607911678677
313.76,313.76,55.860354894032504,70.13563491199983,29.065788014571165
313.767,313.767,55.99834897383135,70.46254084652314,29.199134198328576
313.774,313.774,56.16156813890526,70.76529248989297,29.301948632639935
313.781,313.781,56.350640229509935,71.04245945189713,29.370613468659073
313.787,313.787,56.566763609760606,71.29733279524422,29.40249190902297
313.794,313.794,56.81202541320341,71.53604607775183,29.40809413507592
313.801,313.801,57.08861557366508,71.76451404418717,29.44890212074414
313.808,313.808,57.39670511376829,71.98595575983623,29.519098819320817
313.814,313.814,57.7320647286034,72.19982320514076,29.60946718398829
313.821,313.821,58.08471381233498,72.40172322008641,29.70803303376414
313.828,313.828,58.439425489972976,72.5836892227976,29.800793204760925
313.835,313.835,58.77793268617617,72.73458294909896,29.872498099140547
313.841,313.841,59.08165980500168,72.84068876939959,29.90784480190401
313.848,313.848,59.3339186104494,72.88670198116863,29.922442553502165
313.855,313.855,59.52136845969537,72.91617800920318,29.99685592457718
313.862,313.862,59.63504355604785,73.0348612197574,30.13557482592837
313.868,313.868,59.6712632016247,73.25311160093918,30.336790760814996
313.875,313.875,59.71009299885586,73.57661168286356,30.59247206452258
313.882,313.882,59.81507309126882,74.00563405330378,30.88946518144188
313.889,313.889,59.97108521709189,74.53500601153412,31.211343813053215
313.895,313.895,60.15794341281126,75.15459937307082,31.540532888393507
313.902,313.902,60.352559862224126,75.84997504593048,31.860282031687106
313.909,313.909,60.53206075694861,76.6029755990753,32.156229386898104
313.916,313.916,60.677375985866874,77.39245707033466,32.41746448414768
313.922,313.922,60.77642183391362,78.19553033809304,32.637139016825486
313.929,313.929,60.82589367059312,78.98943876531732,32.81271520267611
313.936,313.936,60.830987600872554,79.753793770109,32.94585025570024
313.943,313.943,60.85896271715679,80.47263992055282,33.0417988597426
313.949,313.949,60.906330615242354,81.13580858070252,33.10824860268475
313.956,313.956,60.96087076028681,81.73923302620146,33.15375412738633
313.963,313.963,61.01458936090214,82.2842290298156,33.18615842169319
313.97,313.97,61.064918598235984,82.77600512303827,33.21136190157753
313.976,313.976,61.11435214396778,83.22179738325836,33.232626471385586
313.983,313.983,61.1689071894327,83.62904842692649,33.250424071733036
313.99,313.99,61.236056176823965,84.00397298083927,33.2627260765051
313.997,313.997,61.3227781380979,84.35070951923241,33.26557690192825
314.003,314.003,61.43427407709421,84.67111010597696,33.277407007529256
314.01,314.01,61.57370919453549,84.96507774609985,33.30986393233815
314.017,314.017,61.7429506940828,85.2312275709767,33.369148018143115
314.024,314.024,61.94385246117844,85.46758502099128,33.461215428612704
314.03,314.03,62.17947259037195,85.6720795903909,33.591176530044834
314.037,314.037,62.454689515026786,85.84272821257031,33.76267683959082
314.044,314.044,62.77597305436981,85.9775446575846,33.97743815202095
314.051,314.051,63.15048735697407,86.07430529453192,34.23515872864132
314.057,314.057,63.58490650540624,86.13040837398435,34.53383100166885
314.064,314.064,64.0842050162003,86.1430896485375,34.87028382533646
314.071,314.071,64.65063260788915,86.17615925426306,35.24072556674607
314.078,314.078,65.28307191521996,86.25607622433415,35.64118557643386
314.084,314.084,65.97669750958435,86.38177162266278,36.06771798116507
314.091,314.091,66.72264021611657,86.548880363048,36.51625216502503
314.098,314.098,67.50756228212198,86.74844946182111,36.98216726640371
314.105,314.105,68.31342426132723,86.96572414944372,37.45977194075901
314.111,314.111,69.11774236763992,87.17938553114458,37.941853051619916
314.118,314.118,69.89420068139545,87.36154460581005,38.419416877299476
314.125,314.125,70.61389914359421,87.47762613317055,38.88245362459212
314.132,314.132,71.2319626493351,87.48313501330065,39.31627985345819
314.138,314.138,71.63611787681829,87.66022795226093,39.679091692256186
314.145,314.145,71.65718728113487,88.15039142079705,39.87918611414995
314.152,314.152,72.31801532937237,89.12779281173623,39.95123409917809
314.159,314.159,73.65946517877944,90.70674482883703,40.34388267673639
314.165,314.165,75.46658255405731,92.83145802512564,41.00078142708297
314.172,314.172,77.34841107199931,95.26678358911182,41.78649225024251
314.179,314.179,78.89955173620491,97.6868757769805,42.54773849085419
314.186,314.186,79.84110313151122,99.78741005961552,43.16861054017845
314.192,314.192,80.08471850338076,101.36262534305087,43.59497964775432
314.199,314.199,80.45282680587043,102.33176833507984,43.82720936704622
314.206,314.206,81.23548233721067,102.72769215657095,43.89763833377231
314.213,314.213,82.19696050267571,102.79045573813836,43.94741725112168
314.219,314.219,83.12030384795705,103.15425421378961,44.081849217111554
314.226,314.226,83.84408381471523,103.65285630454659,44.27746675192673
314.233,314.233,84.28016646161821,104.13698187421639,44.52146719089646
314.24,314.24,84.4128039639107,104.49128687971621,44.805889391019385
314.246,314.246,84.54355603034969,104.64475855494044,45.12127888447389
314.253,314.253,84.86684621763479,104.71392371880592,45.45286850935757
314.26,314.26,85.30715932575397,104.97933225870005,45.780248529299385
314.267,314.267,85.8051285192668,105.37481168295368,46.08034341753625
314.273,314.273,86.32784734842583,105.81048735854853,46.33266124983038
314.28,314.28,86.86820845426452,106.19289723331876,46.524744029872956
314.287,314.287,87.43714401857117,106.44315192305453,46.65549079600148
314.294,314.294,88.05283983270436,106.50874942517919,46.735135624326
314.3,314.3,88.73021633414909,106.64971582445138,46.78215059252313
314.307,314.307,89.47373074434833,106.9908518462242,46.81832508749264
314.314,314.314,90.27487533318987,107.50386431409005,46.863850414931456
314.321,314.321,91.11361041059882,108.14599429540004,46.934008416672405
314.327,314.327,91.96126563060851,108.86491317696243,47.03849872261111
314.334,314.334,92.78048812216669,109.59872468614255,47.18397084688161
314.341,314.341,93.52047071091025,110.27282000223842,47.37717611485446
314.348,314.348,94.11400446107623,110.79942132017015,47.6224804294902
314.354,314.354,94.48575371857574,111.08622523562312,47.9118589845237
314.361,314.361,94.57313540629764,111.11597063236376,48.215523955845306
314.368,314.368,94.79605642020137,111.4986902452966,48.48378358909526
314.375,314.375,95.30475685275165,112.21456996553803,48.661590207296356
314.381,314.381,96.02676445772748,113.188542865767,48.70716078640815
314.388,314.388,96.85749512260885,114.30527299164687,48.80919862765419
314.395,314.395,97.68256296886165,115.43159764996324,49.04403717757907
314.402,314.402,98.40023896843526,116.4415551719619,49.37107518589321
314.408,314.408,98.93943671088958,117.23983101840074,49.733387719840586
314.415,314.415,99.27045851004071,117.77849934373751,50.069622893694685
314.422,314.422,99.40702699947234,118.06208118904667,50.32606160023782
314.429,314.429,99.41535148785202,118.13944502139786,50.466553197185824
314.435,314.435,99.49980801652987,118.19363019446594,50.47840693418881
314.442,314.442,99.59424274551017,118.3028295593121,50.58356533045398
314.449,314.449,99.65508246006554,118.41130322557582,50.77378957515155
314.456,314.456,99.67337606897458,118.49814970069697,51.004145982471485
314.462,314.462,99.67661607223376,118.5776749588503,51.22504747263479
314.469,314.469,99.71992717227299,118.68751040400126,51.39043017821758
314.476,314.476,99.8686441457677,118.87226174302315,51.46581049089587
314.483,314.483,100.17902857816786,119.17011168330696,51.49665368060555
314.489,314.489,100.68434853573743,119.60501772576231,51.62874301818943
314.496,314.496,101.38922132972347,120.1840238104244,51.83787367345286
314.503,314.503,102.27131455198789,120.89818117100711,52.08683821583543
314.51,314.51,103.28778532336473,121.725594484483,52.33415821607374
314.516,314.516,104.38385950561957,122.63588885359495,52.54313820957212
314.523,314.523,105.50164115416744,123.59561517133179,52.68914695695128
314.53,314.53,106.58742945189313,124.57218254822409,52.763211202389726
314.537,314.537,107.59455117914953,125.53095674641357,52.76893704553935
314.543,314.543,108.47713107198281,126.42268867746732,52.82681210826244
314.55,314.55,109.17598424942457,127.16902599491952,52.95351192814195
314.557,314.557,109.61161686756125,127.66182849464258,53.15941607110137
314.564,314.564,109.70138011335557,127.78614623119134,53.43915980622037
314.57,314.57,110.00669168539962,128.1116657762633,53.7547869132824
314.577,314.577,110.69204319629752,128.89611402561545,54.03943928380362
314.584,314.584,111.6721992376467,130.0591132806207,54.21737035765909
314.591,314.591,112.81081546018311,131.4437694165147,54.22585855198613
314.597,314.597,113.95390862937687,132.85354584961874,54.42150816776556
314.604,314.604,114.9638733020448,134.09709657089434,54.821869108707915
314.611,314.611,115.74305549699278,135.02574032842833,55.39562033934054
314.618,314.618,116.24385738504456,135.5559077009221,56.087999527696134
314.624,314.624,116.46853160284674,135.67594196067628,56.83216809302247
314.631,314.631,116.47499425489602,135.9123821648777,57.55982263557847
314.638,314.638,116.63787572774116,136.40350375515126,58.20905919687297
314.645,314.645,116.87036608821614,137.02307622014285,58.729905484780055
314.651,314.651,117.09135617386735,137.6450497677798,59.08821531311921
314.658,314.658,117.23796223317768,138.1641242916806,59.26795291555385
314.665,314.665,117.2713330281413,138.50928222602107,59.271919155631146
314.672,314.672,117.36393208502555,138.64880231629886,59.42317726827214
314.678,314.678,117.56789859460852,138.71040379073978,59.69457238088518
314.685,314.685,117.84136402357647,138.94092890755084,60.041041940037886
314.692,314.692,118.11902582194662,139.2914856311608,60.41216303825501
314.699,314.699,118.32163522297171,139.70780054237636,60.756586169381784
314.705,314.705,118.37120799758591,140.14045840216403,61.027567236821994
314.712,314.712,118.53305582842472,140.55226007834045,61.190194084898984
314.719,314.719,118.92915497687184,140.92066895932857,61.228005687218634
314.726,314.726,119.53844906487355,141.23466273146482,61.31037826659324
314.732,314.732,120.29690648886006,141.48751534228145,61.489554024841496
314.739,314.739,121.10654162292421,141.66846213963169,61.729050652518566
314.746,314.746,121.85037542521216,141.75576992842414,61.98583271931985
314.753,314.753,122.41050868306274,141.79896230934716,62.216306993482505
314.759,314.759,122.68593360184987,142.02450673132836,62.38162077587218
314.766,314.766,122.7653018307452,142.49300001502124,62.452427161012174
314.773,314.773,123.2306031738373,143.26187584458964,62.49211730531379
314.78,314.78,124.07213556072054,144.37118260302034,62.64278108418873
314.786,314.786,125.2427034858548,145.8304061211652,62.88952315868572
314.793,314.793,126.6652516378264,147.60862326206222,63.204512234456516
314.8,314.8,128.24276719436523,149.62896819530434,63.55106589822918
314.807,314.807,129.86961661600836,151.76875482154512,63.891002541872
314.813,314.813,131.429732540212,153.8584464413611,64.19116567644953
314.82,314.82,132.75299986343526,155.65981461839823,64.4091568897122
314.827,314.827,133.57958540786422,156.85153929261017,64.46565747620247
314.834,314.834,133.64314092218638,157.10471379320762,64.67733473775007
314.84,314.84,134.450195858738,157.96817092672052,65.23754832211844
314.847,314.847,135.99443174844663,159.86196622168626,66.15574937042314
314.854,314.854,137.9597160451546,162.45371163962818,67.36622389829647
314.861,314.861,139.97270203953482,165.28176710414652,68.75372482559668
314.867,314.867,141.71554294196252,167.89110746218026,70.18560584898988
314.874,314.874,142.98860790623246,169.93481660537896,71.53419003582073
314.881,314.881,143.72246626177397,171.22263667357788,72.68954010775616
314.888,314.888,143.95533860410208,171.7209422720575,73.56890484447545
314.894,314.894,144.11576286402396,171.92107175030537,74.12480301397288
314.901,314.901,144.53021552820732,172.64959654653612,74.34924383787617
314.908,314.908,145.0580407522084,173.70332309891688,74.42787957125887
314.915,314.915,145.5785836208409,174.8838240068434,74.75484290870929
314.921,314.921,146.00360075315925,176.02448086926486,75.26152480795422
314.928,314.928,146.28140993113183,177.00618929974308,75.87655343011784
314.935,314.935,146.39483507514407,177.7624865115136,76.534246242192
314.942,314.942,146.4346698000645,178.27609832339732,77.18078262076125
314.948,314.948,146.59696143947508,178.5698114542014,77.77828605050806
314.955,314.955,146.84050074860073,178.69447075182808,78.30622568113003
314.962,314.962,147.12203407914228,178.71603251979278,78.75950865728511
314.969,314.969,147.4026282585195,178.7291822477792,79.14373164324971
314.975,314.975,147.65167640418105,178.74091493160552,79.46930396326064
314.982,314.982,147.84884373353935,178.8200737926119,79.74637627892511
314.989,314.989,147.9843035942076,178.9881322492594,79.98170874265134
314.996,314.996,148.05748302501806,179.24595891681702,80.17759530488715
315.002,315.002,148.07480852553823,179.57783249267513,80.33241671191107
315.009,315.009,148.10238029498808,179.95746192560912,80.44233202102218
315.016,315.016,148.16145063425984,180.35452183430587,80.50362825875123
315.023,315.023,148.23780931033417,180.74052841143538,80.51515996801848
315.029,315.029,148.31780465465116,181.09323268028643,80.55009613731022
315.036,315.036,148.38948696084398,181.39910266946944,80.6230491220226
315.043,315.043,148.4434246167651,181.65382059796522,80.7211191977001
315.05,315.05,148.47316814662082,181.861020166008,80.82878842757212
315.056,315.056,148.47538705149967,182.02985680304496,80.9302586391938
315.063,315.063,148.500992569102,182.17227087267898,81.01182551708273
315.07,315.07,148.55182620202177,182.30062720457738,81.06401702011124
315.077,315.077,148.62256969586952,182.42597883743272,81.08310119192276
315.083,315.083,148.70562763013106,182.55695944263536,81.09471619699266
315.09,315.09,148.79197938963563,182.6991907069484,81.12933228764633
315.097,315.097,148.87221226038474,182.85496839724053,81.17576643983428
315.104,315.104,148.9373678728729,183.02312014960128,81.22161923686261
315.11,315.11,148.97951827398165,183.19923724586468,81.25550462469133
315.117,315.117,148.99229809219014,183.37653314170208,81.26885700882922
315.124,315.124,149.01297798880483,183.54729039580678,81.28058679692377
315.131,315.131,149.06803597750826,183.7045310616099,81.317430287913
315.137,315.137,149.15447557417386,183.8434297885794,81.3751610946676
315.144,315.144,149.26534705467935,183.96208222003833,81.4462670931235
315.151,315.151,149.39073290564258,184.06148040308994,81.52135922687663
315.158,315.158,149.51945708064684,184.14488149200415,81.59059548689332
315.164,315.164,149.64080554038932,184.21700735466987,81.64480892537942
315.171,315.171,149.7457154589908,184.28344031700485,81.67631883367781
315.178,315.178,149.82731767592324,184.35022057221434,81.6794867129534
315.185,315.185,149.8809400601552,184.4234239107995,81.7081025762582
315.191,315.191,149.90382687079054,184.50862305563953,81.77001836212082
315.198,315.198,149.91259015898274,184.610248887507,81.86495420718849
315.205,315.205,149.95152519802198,184.73077366222128,81.99023100677802
315.212,315.212,150.01579207409657,184.86972698939286,82.1397708730295
315.218,315.218,150.09669370655945,185.0229640909383,82.30371496747732
315.225,315.225,150.18248975432618,185.18279638027505,82.46932230186206
315.232,315.232,150.2604869766943,185.3391763710061,82.62303961674856
315.239,315.239,150.31951768290244,185.48153876964938,82.75311492517586
315.245,315.245,150.35181407464373,185.60071026842377,82.8519131546277
315.252,315.252,150.35374586303791,185.69043181908657,82.91714230270411
315.259,315.259,150.3820809943631,185.74820996317476,82.95162816612462
315.266,315.266,150.43803934743065,185.77539123456046,82.96189746205302
315.272,315.272,150.5178350515252,185.77651937430582,82.96758554126312
315.279,315.279,150.6176998342131,185.79488277223336,82.98110735142826
315.286,315.286,150.7345990818477,185.82555816747464,82.9957823217747
315.293,315.293,150.86643914686672,185.86193440062306,83.0069456781826
315.299,315.299,151.01166090661712,185.89862273303493,83.01189339408528
315.306,315.306,151.1683765497961,185.9316856027208,83.01429534683125
315.313,315.313,151.33373027243604,185.9588393807411,83.02397532584374
315.32,315.32,151.5039979105899,185.97962365121896,83.03980918976738
315.326,315.326,151.67496767086095,185.99501522929447,83.05962773213449
315.333,315.333,151.84192569588103,186.0064556337661,83.0801839841066
315.34,315.34,151.9995043474596,186.0150801994444,83.0973219871719
315.347,315.347,152.14209224866144,186.02166224639302,83.10665326573441
315.353,315.353,152.26497889845544,186.02691101201353,83.10877774287783
315.36,315.36,152.36579318014287,186.03160148925963,83.12466297647522
315.367,315.367,152.4454897466897,186.0364512087219,83.15538286078616
315.374,315.374,152.50829654635766,186.04191547742968,83.2013736227866
315.38,315.38,152.56060306715915,186.04811024099476,83.26300110411701
315.387,315.387,152.60930578132516,186.05505714143544,83.34071862370507
315.394,315.394,152.66037183209158,186.06323123137147,83.43478663985188
315.401,315.401,152.71816133856512,186.07402906571957,83.54478270353773
315.407,315.407,152.7853573516281,186.0896601709425,83.6691105824261
315.414,315.414,152.86296041265277,186.11238864107594,83.80460269041079
315.421,315.421,152.95022680082673,186.1436426348016,83.9463252874688
315.428,315.428,153.0448371248954,186.18354294972988,84.08775159709155
315.434,315.434,153.14331982978487,186.23093841682748,84.22135783732931
315.441,315.441,153.24146202156032,186.28372427527526,84.33951423635118
315.448,315.448,153.3346688615723,186.33924365627627,84.4354653767692
315.455,315.455,153.41844776142062,186.39471088060785,84.50417521865965
315.461,315.461,153.48894273107368,186.44763902369164,84.54281966369827
315.468,315.468,153.5432779092789,186.4961660607224,84.55081843501826
315.475,315.475,153.57974945247656,186.53916429806878,84.57215614292538
315.482,315.482,153.59808179257274,186.57615668801543,84.62016426920454
315.488,315.488,153.59978233494147,186.60715885187042,84.69134443185563
315.495,315.495,153.61108555127817,186.63259955220883,84.78180957993733
315.502,315.502,153.62947746992924,186.65345336752273,84.88762812184167
315.509,315.509,153.6469873844087,186.67151893311433,85.0050506749518
315.515,315.515,153.65435667847234,186.68956387137888,85.13062063939438
315.522,315.522,153.6665210757471,186.7111552962792,85.26122555286919
315.529,315.529,153.7064987830231,186.7402837984288,85.39419511715006
315.536,315.536,153.78034842974884,186.780946919122,85.52756025736367
315.542,315.542,153.89125505263982,186.83651903273486,85.66045891947438
315.549,315.549,154.03924458630755,186.908476473632,85.7935798004091
315.556,315.556,154.22037584376224,186.9953374601397,85.92987261422992
315.563,315.563,154.42605436194032,187.09450749097775,86.07490302411007
315.569,315.569,154.6446361849709,187.20704752098965,86.23460061871478
315.576,315.576,154.8646345139984,187.34040054935673,86.41119099158394
315.583,315.583,155.07737949024633,187.50572398643988,86.60215387177203
315.59,315.59,155.2791294166246,187.7123855609887,86.80313088920535
315.596,315.596,155.4719931123964,187.96378348660136,87.01063972201729
315.603,315.603,155.66157074126545,188.25584546354017,87.22228832208128
315.61,315.61,155.85137113554174,188.5767393083072,87.43514432520621
315.617,315.617,156.03673661783242,188.90594070819637,87.64330944010841
315.623,315.623,156.20087404273372,189.21258965843063,87.83576280760246
315.63,315.63,156.31377244994752,189.45514956566666,87.99557775808131
315.637,315.637,156.3340469416359,189.58482664965914,88.10115945775112
315.644,315.644,156.45360154562104,189.61635516767524,88.12950428765171
315.65,315.65,156.7559827921965,189.84714191726238,88.19796654627828
315.657,315.657,157.2671882894533,190.29640776836695,88.37398715970203
315.664,315.664,157.98534589588056,190.95915582140478,88.65517826656544
315.671,315.671,158.87659584531823,191.8044408043072,89.02417957774736
315.677,315.677,159.8790535820317,192.77665730354647,89.44915008448872
315.684,315.684,160.91076718015975,193.79709655428377,89.88394969660331
315.691,315.691,161.875497254648,194.76459900131763,90.26715916971312
315.698,315.698,162.66537596954916,195.5604005801069,90.52702200212042
315.704,315.704,163.16677300828374,196.0623288454807,90.60192698352904
315.711,315.711,163.27690958226714,196.16594994105623,90.73202906558592
315.718,315.718,163.62284539849588,196.52504481164965,91.02566014051878
315.725,315.725,164.42578638254312,197.35128408319716,91.38841690179721
315.731,315.731,165.61253692723102,198.57533918970117,91.70357732540812
315.738,315.738,167.04696777977227,200.05532703286883,91.86644776002501
315.745,315.745,168.55790571282864,201.601258251792,91.92287363236349
315.752,315.752,169.97339369593863,203.0178777593157,92.2157705580643
315.758,315.758,171.15134391055875,204.14818105572368,92.71389224342906
315.765,315.765,172.0000360448454,204.90180738465244,93.3488874513111
315.772,315.772,172.4857878510383,205.26316206098687,94.03164033115267
315.779,315.779,172.6287663994658,205.28207473816855,94.66929944044672
315.785,315.785,172.76815295635785,205.51045457378603,95.179818366341
315.792,315.792,173.10986100046318,205.86858711987173,95.5028962702705
315.799,315.799,173.57729140967325,206.2367027313305,95.60740881691643
315.806,315.806,174.11486543978302,206.50911916984893,95.72051372435315
315.812,315.812,174.69245707014738,206.60857858960676,96.02151575375824
315.819,315.819,175.29526575043965,206.71686862378874,96.4611293664621
315.826,315.826,175.90591596026533,207.012941699584,96.98276252688129
315.833,315.833,176.48989578436377,207.41761687268487,97.53403493167234
315.839,315.839,176.99233644209687,207.80324349624672,98.07470276585317
315.846,315.846,177.34651625973984,208.02101166789208,98.5798070614489
315.853,315.853,177.48937157297976,208.10492372404602,99.03835171961089
315.86,315.86,177.6003748950153,208.57514868067122,99.44935829946377
315.866,315.866,177.9691490352902,209.4430094782859,99.81792442428994
315.873,315.873,178.5334958756629,210.63604538494823,100.14881489482467
315.88,315.88,179.14087144762178,211.99673775402678,100.43338030647473
315.887,315.887,179.57831287037698,213.29317777279846,100.64240612581595
315.893,315.893,179.67319287150514,214.26376496910186,100.74010509579823
315.9,315.9,179.9567454914513,214.69775398781115,100.77526629024393
315.907,315.907,180.50673776501088,214.8869822384929,100.9438688097073
315.914,315.914,181.1300149212145,215.63936003234056,101.23008896321421
315.92,315.92,181.6376620004996,216.78108127336827,101.60808809140869
315.927,315.927,181.9068918628792,218.08765932741423,102.04773979545844
315.934,315.934,181.90978186968263,219.34611484083388,102.51762176857008
315.941,315.941,182.14266670139372,220.3970302424683,102.98431729480798
315.947,315.947,182.5216783044665,221.15254666372934,103.41044938919164
315.954,315.954,182.95860356953517,221.59572561277898,103.75537473258635
315.961,315.961,183.38851261676433,221.768049614863,103.98122514885158
315.968,315.968,183.78079741023586,221.78677636779892,104.06240565634815
315.974,315.974,184.13371162485086,221.90294168598106,104.1312705285135
315.981,315.981,184.45736064666272,222.03385274890894,104.33217293163322
315.988,315.988,184.75338103585,222.12726459893238,104.6259094596097
315.995,315.995,185.0006541616911,222.17071062417764,104.95896006021405
316.001,316.001,185.15267078692025,222.1888818962864,105.27345380169761
316.008,316.008,185.15870057920924,222.23207003853452,105.51816734214567
316.015,316.015,185.38469599654982,222.3612408947418,105.65836057998322
316.022,316.022,185.87305010073302,222.63398279498935,105.68186158927975
316.028,316.028,186.63351607354286,223.09333295519033,105.76408155436596
316.035,316.035,187.63905250893578,223.7604194639918,105.92225270480476
316.042,316.042,188.82999219581868,224.630210175001,106.11486193754082
316.049,316.049,190.1229942781724,225.66718247940952,106.29491980242963
316.055,316.055,191.417087655514,226.798660352107,106.41163675582602
316.062,316.062,192.59214527549298,227.9097712241038,106.41209090969369
316.069,316.069,193.51016667923136,228.8484018051938,106.56766925857765
316.076,316.076,194.03505422511165,229.44668295854723,106.8779608830203
316.082,316.082,194.06928579932534,229.5601737740183,107.28473588178443
316.089,316.089,194.55037990836848,230.00574679991976,107.68773624108108
316.096,316.096,195.4849145924843,230.98182174705465,107.98142687131293
316.103,316.103,196.73625484261746,232.35581647285346,108.09096560064326
316.109,316.109,198.1237400591633,233.92275132485787,108.19094077349087
316.116,316.116,199.4614841585182,235.45696736814094,108.47725728751286
316.123,316.123,200.5946712160718,236.7640896974168,108.89161218655663
316.13,316.13,201.42454429427517,237.71645610169844,109.35790220278754
316.136,316.136,201.91756865932376,238.26614746076214,109.79830203855353
316.143,316.143,202.09992434745354,238.43886270345484,110.14612146868218
316.15,316.15,202.15825062122238,238.56263131622828,110.35497881562773
316.157,316.157,202.36472054844336,238.8724025730914,110.40374117367114
316.163,316.163,202.6251539232067,239.2521940113659,110.51097244730866
316.17,316.17,202.8590862901447,239.59972652677862,110.7497576363296
316.177,316.177,203.00717243993284,239.83798245177016,111.08342539311899
316.184,316.184,203.03160240164777,239.91965119694171,111.4711233077166
316.19,316.19,203.1508340074912,240.0125871221609,111.87306459673711
316.197,316.197,203.41980683704085,240.27231991941144,112.25299379041785
316.204,316.204,203.8327985623338,240.6723533545861,112.58000728869709
316.211,316.211,204.3761232805824,241.17820687015097,112.83125232033157
316.217,316.217,205.03368907708344,241.75664691057423,112.99434989774144
316.224,316.224,205.78666220433465,242.37911401377164,113.06742004222787
316.231,316.231,206.6060917464495,243.02101839012695,113.07765930510661
316.238,316.238,207.44667445590963,243.6599464249484,113.15790713178458
316.244,316.244,208.24641439801022,244.27423767843618,113.29047861637838
316.251,316.251,208.93107629338598,244.84281803964427,113.4557884733912
316.258,316.258,209.42261036913612,245.3460378360566,113.63390563508042
316.265,316.265,209.65329320405186,245.76613893877547,113.80492820619793
316.271,316.271,209.7204179887453,246.08631308093857,113.94861437121487
316.278,316.278,210.07137917541928,246.288665413223,114.04323643336541
316.285,316.285,210.63368387362485,246.35279922320473,114.06489066103589
316.292,316.292,211.28925590989408,246.44811271849278,114.13980101961535
316.298,316.298,211.90371749652738,246.7191596403953,114.32860046801372
316.305,316.305,212.35845277222245,247.1703291388065,114.6365523686074
316.312,316.312,212.57308258092831,247.79083159247517,115.05470920678448
316.319,316.319,212.6320407628388,248.55663437196634,115.5614874245314
316.325,316.325,212.95371408641643,249.43499188874785,116.12614229059852
316.332,316.332,213.4917197224772,250.3885629576666,116.71275072887502
316.339,316.339,214.17544736714964,251.3781193316823,117.28423505655324
316.346,316.346,214.9217130153286,252.36433624009007,117.80624234674553
316.352,316.352,215.6454959589763,253.30929228956552,118.25046843482646
316.359,316.359,216.26866733133065,254.17775365559342,118.5969296764739
316.366,316.366,216.72640194547105,254.93803764573266,118.83501030520603
316.373,316.373,216.9717478872253,255.56223441160103,118.96344425629329
316.379,316.379,216.97869671014178,256.0256343057206,118.98947353771882
316.386,316.386,217.21416766950853,256.30573526554224,119.05168730385981
316.393,316.393,217.67625688023722,256.382029000767,119.18337605693503
316.4,316.4,218.33504250670535,256.5259998090812,119.3638319151971
316.406,316.406,219.15427124410073,256.8977102795993,119.57304729367408
316.413,316.413,220.09905836659468,257.48913849172607,119.79434841062441
316.42,316.42,221.14218228899173,258.27177325322,120.01679153290928
316.427,316.427,222.26861405163424,259.1963270569531,120.23653621412058
316.433,316.433,223.47767373856135,260.19801253956473,120.45668366578705
316.44,316.44,224.78118280446236,261.2054356546835,120.6855871392331
316.447,316.447,226.19634174099306,262.1501808509246,120.93371891514253
316.454,316.454,227.73483458259233,262.97502121535246,121.20972173371428
316.46,316.46,229.3922798371106,263.6398455137583,121.51717245425641
316.467,316.467,231.14223246939665,264.1248254235918,121.85336696493061
316.474,316.474,232.93704629253975,264.43048385113553,122.21021609558078
316.481,316.481,234.71505329365547,264.5748490618121,122.57645073041775
316.487,316.487,236.4109854835553,264.58852853384576,122.94014618642669
316.494,316.494,237.96581530403463,264.66826050002305,123.29072164613747
316.501,316.501,239.33325306073309,264.8034255988988,123.61987852633006
316.508,316.508,240.4820838059321,264.9606888680684,123.92131186254164
316.514,316.514,241.39528322765673,265.11569520697304,124.18940173761086
316.521,316.521,242.06761997688935,265.2561930538005,124.41777480612622
316.528,316.528,242.50293866455576,265.38349134901495,124.59899882336357
316.535,316.535,242.7113509658145,265.5113026816728,124.72560338646642
316.541,316.541,242.7156968771702,265.66132608439693,124.79154408787825
316.548,316.548,242.9147450151598,265.85655262821416,124.79368980424141
316.555,316.555,243.28473528823534,266.1149145973541,124.85413675316615
316.562,316.562,243.79501370491445,266.4456512721971,124.97098694630145
316.568,316.568,244.40938539206823,266.8490888184412,125.13381156027845
316.575,316.575,245.08966655362798,267.3190054049068,125.32970965427802
316.582,316.582,245.79990799133222,267.8457769957363,125.54501247708389
316.589,316.589,246.50999886863073,268.4184656945631,125.76613884629225
316.595,316.595,247.19797991059642,269.0251890125951,125.97971024918708
316.602,316.602,247.85076530589936,269.65248868401136,126.17258973762686
316.609,316.609,248.46327020915837,270.284840236419,126.33228233065553
316.616,316.616,249.03636254211193,270.90494866737595,126.44766303549265
316.622,316.622,249.57437636506148,271.4948817743901,126.50986098146167
316.629,316.629,250.08292446093915,272.0377980116207,126.51316144085878
316.636,316.636,250.56742426998323,272.51990389456233,126.57061557932484
316.643,316.643,251.0323095848569,272.93223910675783,126.68657763038739
316.649,316.649,251.48067108311565,273.27191104075143,126.85499192943468
316.656,316.656,251.9141123438505,273.5424522937319,127.06672262106478
316.663,316.663,252.3327556458137,273.75310296425056,127.31054805388766
316.67,316.67,252.7354893744739,273.9170932782208,127.57423300774137
316.676,316.676,253.12057579272874,274.0493352588928,127.84546405711892
316.683,316.683,253.4865654460262,274.16410083796967,128.11247740326286
316.69,316.69,253.83328653052166,274.27318221261953,128.36438295996714
316.697,316.697,254.16265294013357,274.384807752109,128.59139698014928
316.703,316.703,254.47913865646916,274.50334185114906,128.78521821034235
316.71,316.71,254.7898685843284,274.6296341788049,128.9395707053399
316.717,316.717,255.10429556388695,274.76185530777167,129.05069461634636
316.724,316.724,255.43344881021693,274.8966836656325,129.11750315777013
316.73,316.73,255.78883660733774,275.03069260545664,129.1412508512563
316.737,316.737,256.18124739469954,275.161738864478,129.15776355093965
316.744,316.744,256.61978657590925,275.2901850794979,129.21125061560036
316.751,316.751,257.11141749313975,275.4198780102924,129.29892898823226
316.757,316.757,257.6611281283316,275.5587783299139,129.41912379615965
316.764,316.764,258.27264707869426,275.71903973357155,129.57138083315658
316.771,316.771,258.9493504700024,275.9163335256,129.756199735425
316.778,316.778,259.69478691171565,276.1682670686632,129.97458376916146
316.784,316.784,260.51234693277297,276.4919072344181,130.22753572111534
316.791,316.791,261.4041420059877,276.90090351496616,130.51561636310694
316.798,316.798,262.3696650204941,277.4030556285598,130.83869489619573
316.805,316.805,263.4046334442989,277.998706989212,131.19580970068913
316.811,316.811,264.500010908437,278.6796107418072,131.5848610193924
316.818,316.818,265.64120396218215,279.42791054052157,132.00202351979493
316.825,316.825,266.8075681865619,280.21553362754025,132.44107859936065
316.832,316.832,267.9724458166487,281.004801101621,132.89301399516646
316.838,316.838,269.1040417432738,281.7508019182619,133.34614127713198
316.845,316.845,270.1672930024099,282.4051658341183,133.7866583318107
316.852,316.852,271.1265592621707,282.9201592387491,134.1993461037084
316.859,316.859,271.9489002405452,283.25210238509266,134.5683464671284
316.865,316.865,272.61034576588514,283.36242478275426,134.8829528086229
316.872,316.872,273.0902996809628,283.52334847484116,135.14878064204504
316.879,316.879,273.3298796472527,284.0624491394512,135.37791822244156
316.886,316.886,273.44493902597617,285.16697258858136,135.55323178566474
316.892,316.892,273.9875131853906,287.02147749370766,135.6245646745107
316.899,316.899,274.8569772235105,289.64939681027187,135.69474617335885
316.906,316.906,275.77379370438945,292.82134057797373,135.89731416866252
316.913,316.913,276.41008987535514,296.1165444001069,136.18426141939
316.919,316.919,276.53456394205097,299.0777557207361,136.49496264610644
316.926,316.926,276.9843375107719,301.348330832019,136.77988790686928
316.933,316.933,277.9072393577605,302.7423226807427,137.01436878359473
316.94,316.94,279.09192401960496,303.25315659099937,137.20059047162127
316.946,316.946,280.28526347800863,303.48799146712884,137.3590257438296
316.953,316.953,281.2520969606896,304.2451597912385,137.51392712711308
316.96,316.96,281.816877888266,305.27477877502463,137.68042757492844
316.967,316.967,281.8865452100314,306.346581216313,137.8585862091915
316.973,316.973,282.3170820830497,307.2789591266862,138.0349071641645
316.98,316.98,283.17599065814204,307.9533848959196,138.18900576572167
316.987,316.987,284.3400644759918,308.3186021325621,138.3018693645779
316.994,316.994,285.66810246926696,308.3874870714437,138.3624927887856
317.0,317.0,287.0322739501383,308.5476851982266,138.37127814689933
317.007,317.007,288.34068307439225,308.83108389953753,138.4025119750666
317.014,317.014,289.54889180984173,309.11352564115526,138.45322974863268
317.021,317.021,290.65960355867304,309.27555689426475,138.49877763320868
317.027,317.027,291.71165725062576,309.32743257250917,138.51591031445057
317.034,317.034,292.76264170080026,309.6470148541965,138.54385985397244
317.041,317.041,293.87040431725626,310.24520852384796,138.62338065611914
317.048,317.048,295.07791457360617,311.09603563530084,138.74971290469077
317.054,317.054,296.4041859123234,312.14792594505815,138.90857759521242
317.061,317.061,297.84132728054465,313.33565897184457,139.07977787332902
317.068,317.068,299.35617691947255,314.5885279847849,139.24066534319329
317.075,317.075,300.8934714677882,315.83152892470554,139.3668805443655
317.081,317.081,302.3753799923513,316.98007248493997,139.43039308213483
317.088,317.088,303.69796158304393,317.9338271313696,139.45869596135586
317.095,317.095,304.73793062497845,318.57869078285063,139.5938945049743
317.102,317.102,305.38030323357714,318.80479733058434,139.81648423083735
317.108,317.108,305.55608010518245,319.070929130363,140.06602102766922
317.115,317.115,305.84346457274586,319.8352170594584,140.25858156515716
317.122,317.122,306.51398116273316,321.0225018389461,140.31764883124032
317.129,317.129,307.427715282656,322.48648132849945,140.43504737365288
317.135,317.135,308.4150020069564,324.0380845269111,140.72754670060363
317.142,317.142,309.3107420354506,325.4830251787162,141.15325766593668
317.149,317.149,309.98471970157624,326.6586587430752,141.64246503124483
317.156,317.156,310.3615557271776,327.46095774206435,142.11459772711441
317.162,317.162,310.42688609699826,327.85640182272874,142.49619010371748
317.169,317.169,310.6326866850304,327.879116970308,142.73593731914977
317.176,317.176,311.02944795159493,328.14224998577,142.81296150718862
317.183,317.183,311.5180065849394,328.5757503001638,142.88919731139976
317.189,317.189,312.0049392580721,329.06431229883407,143.0853371578026
317.196,317.196,312.42697787651383,329.5181354284322,143.35326391036176
317.203,317.203,312.7658570862576,329.887210356947,143.64041895026207
317.21,317.21,313.0464218840648,330.1627157843593,143.90099565755673
317.216,317.216,313.32198152608936,330.36889887528804,144.10510503359208
317.223,317.223,313.65579381302877,330.55018715474904,144.2428125579201
317.23,317.23,314.10386812887896,330.7574895588701,144.3227398667073
317.237,317.237,314.7019188814741,331.03642676669057,144.36660954383714
317.243,317.243,315.4583972652747,331.41920123719103,144.40193033776154
317.25,317.25,316.35389888419957,331.92044680110445,144.45478475007835
317.257,317.257,317.34527768369486,332.5353772511204,144.54439017378442
317.264,317.264,318.37086786367263,333.2372772515946,144.68193503153708
317.27,317.27,319.35329077103944,333.9734844157347,144.87383707951952
317.277,317.277,320.2003379303721,334.66427203093696,145.12271381473502
317.284,317.284,320.8109229062243,335.21092994110364,145.4184288488903
317.291,317.291,321.0931781498253,335.5139616113565,145.7248061032845
317.297,317.297,321.196020214459,335.5320142192787,145.9794122156014
317.304,317.304,321.6856526437419,335.90643278690516,146.11309001842903
317.311,317.311,322.50392535345344,336.61848681945077,146.15083774057135
317.318,317.318,323.5434854681291,337.594209267873,146.37704832499426
317.324,317.324,324.66942437273127,338.71392883303173,146.7747683327682
317.331,317.331,325.7456200350917,339.83228002923244,147.302286489036
317.338,317.338,326.65915994227095,340.80614876105346,147.90654733785038
317.345,317.345,327.3379615827291,341.5236376257935,148.53532956333896
317.351,317.351,327.7584618021627,341.9250478102915,149.14468861610678
317.358,317.358,327.942011409077,342.0100322053125,149.70169789354003
317.365,317.365,327.9420505459765,342.1892415014237,150.18426680770656
317.372,317.372,328.057644973932,342.5448409207149,150.57909539295525
317.378,317.378,328.2232921593279,342.97546885274176,150.87855215130764
317.385,317.385,328.3902931259179,343.3865581200081,151.07806399534857
317.392,317.392,328.536502523676,343.70240694065717,151.17541834973386
317.399,317.399,328.67051453255146,343.8687118513607,151.1781583988324
317.405,317.405,328.828273336369,343.8863764683556,151.27068749291902
317.412,317.412,329.05961304464483,344.102830421973,151.4315187398968
317.419,317.419,329.4069928214009,344.511816806851,151.62969548640788
317.426,317.426,329.88542429576034,345.08502934348405,151.8317208394295
317.432,317.432,330.4728369914808,345.773894256262,152.0105382247824
317.439,317.439,331.1130664673185,346.51433083827214,152.15250760179077
317.446,317.446,331.7263039422922,347.2321472413438,152.26054000072554
317.453,317.453,332.2204951414701,347.84681456879457,152.353558413697
317.459,317.459,332.50098395974186,348.27428709880496,152.4629376143374
317.466,317.466,332.5226817766597,348.43196182232583,152.62677422918296
317.473,317.473,332.91927768745023,348.6167439862687,152.8827747866578
317.48,317.48,333.73667935400965,349.1969400532104,153.26032752775333
317.486,317.486,334.98341651810864,350.1964703395151,153.77277302024643
317.493,317.493,336.6245019482453,351.6007524204889,154.41164225654995
317.5,317.5,338.5824819743099,353.3490010465422,155.14492787825557
317.507,317.507,340.7488381584949,355.3348221416333,155.92723778707918
317.513,317.513,342.9903102686095,357.40653649751766,156.71950984093576
317.52,317.52,345.1235956452689,359.33972356362835,157.48362639741012
317.527,317.527,346.91793748493455,360.8153170200583,158.14981262485168
317.534,317.534,348.205698882624,361.4944779399074,158.6148870064049
317.54,317.54,349.0072237724164,361.8146348636927,158.78310728028055
317.547,317.547,349.52384741859163,363.09460615679313,158.96487015309407
317.554,317.554,350.01473278476305,365.06752838651096,159.49915791224154
317.561,317.561,350.6656608886602,367.3415758444872,160.34462256215136
317.567,317.567,351.5215651959277,369.5208482634077,161.42516139730202
317.574,317.574,352.49422491770684,371.2960425424511,162.63920852766316
317.581,317.581,353.41852852523255,372.4895827086377,163.8719354518857
317.588,317.588,354.1225756241303,373.0596220502108,165.01160497983474
317.594,317.594,354.4826712155176,373.0749721420775,165.96715694398975
317.601,317.601,354.51714029458594,373.47379973626045,166.6807460244095
317.608,317.608,354.92598634404817,374.11494216647077,167.13098799730764
317.615,317.615,355.6368299149863,374.83001292400775,167.32868420253428
317.621,317.621,356.5502860839407,375.4796593232149,167.34818340059653
317.628,317.628,357.56362970410265,375.96794335333965,167.53377963446286
317.635,317.635,358.587675743489,376.24621605146876,167.82785609159296
317.642,317.642,359.55572853773253,376.308931027739,168.17509354978878
317.648,317.648,360.42591415706016,376.433690587876,168.52957402857982
317.655,317.655,361.1788401271457,376.69630698454273,168.85876656102405
317.662,317.662,361.81252388259594,377.03801152274445,169.14377552518394
317.669,317.669,362.3364067970297,377.40184749613417,169.37660641285618
317.675,317.675,362.76609268947647,377.74100919541416,169.5561549462738
317.682,317.682,363.1198595697248,378.0237098678862,169.68462016117545
317.689,317.689,363.4169048094739,378.2343398517046,169.76531247442867
317.696,317.696,363.67642361276637,378.37155487462365,169.80193543664763
317.702,317.702,363.91665874289737,378.44457982566377,169.80503722421903
317.709,317.709,364.15373683833195,378.46899007250306,169.8423100910013
317.716,317.716,364.40064290672996,378.47525590406525,169.9065779993311
317.723,317.723,364.66663076125405,378.49533039049413,169.98905433153246
317.729,317.729,364.95704288889647,378.5160899966568,170.07991905718322
317.736,317.736,365.27347790559594,378.52979927728546,170.16935800337103
317.743,317.743,365.61437838325236,378.5344669423667,170.24870391938788
317.75,317.75,365.97592175392913,378.53604441730465,170.3113322667535
317.756,317.756,366.3527855648656,378.5382004750634,170.3531237302646
317.763,317.763,366.73848393847317,378.54168978914544,170.37247532873485
317.77,317.77,367.12536800229896,378.55542569356675,170.37493312308936
317.777,317.777,367.5046031807109,378.5807876322646,170.3966776745679
317.783,317.783,367.86642722009833,378.6153116647384,170.43351911863144
317.79,317.79,368.2008307594374,378.65321122266613,170.47973018991564
317.797,317.797,368.49858990938156,378.68677592308757,170.52832944175805
317.804,317.804,368.752462810433,378.70810826853506,170.57176985347382
317.81,317.81,368.9583178352146,378.71075033307136,170.60298052727032
317.817,317.817,369.1158611120491,378.730561791477,170.616359405111
317.824,317.824,369.2286220679481,378.77319515970504,170.6243712243876
317.831,317.831,369.3031249857058,378.8355619954656,170.65509104487703
317.837,317.837,369.3475346297954,378.91168219304916,170.70755888631123
317.844,317.844,369.3702578555484,378.9938305169388,170.77863718460958
317.851,317.851,369.37894111720937,379.0740969469138,170.86326887941837
317.858,317.858,369.38009879018983,379.14595798578955,170.95486920319308
317.864,317.864,369.3808440817425,379.2053031320055,171.04587161589467
317.871,317.871,369.38357524796754,379.25050970785696,171.12843051342475
317.878,317.878,369.3956359217623,379.2816057087059,171.19520440193364
317.885,317.885,369.42360559003646,379.2990406235532,171.24008930648293
317.891,317.891,369.47411214173997,379.30277482002026,171.25871616309828
317.898,317.898,369.5523391111306,379.31341388955957,171.26883806919486
317.905,317.905,369.6603647235556,379.339192154931,171.3083981169266
317.912,317.912,369.7959586731065,379.3802010250736,171.37631380936745
317.918,317.918,369.95221125704666,379.43529057118326,171.46960433371538
317.925,317.925,370.1181519782776,379.5018577109921,171.58325438352307
317.932,317.932,370.28024670186267,379.5759131597781,171.71034992711833
317.939,317.939,370.4244242593857,379.6523532801787,171.84269120284588
317.945,317.945,370.53819873938306,379.72548232633216,171.97185115793516
317.952,317.952,370.6124885448865,379.78978624702165,172.0904608511645
317.959,317.959,370.6427971566606,379.8407905763683,172.19342518200358
317.966,317.966,370.6561052358724,379.875811689285,172.2787073844364
317.972,317.972,370.7085273658466,379.89447380999246,172.34736048275286
317.979,317.979,370.7929056018392,379.8988495626343,172.40273759908362
317.986,317.986,370.90114511908894,379.9045639098627,172.4490927370265
317.993,317.993,371.02568390220165,379.91479679870525,172.48994376650316
317.999,317.999,371.1605537996689,379.9237060844636,172.5267137400982
318.006,318.006,371.30210143172434,379.9264870464826,172.5581047010001
318.013,318.013,371.44930613261937,379.9324946658441,172.58026371364883
318.02,318.02,371.6034867523008,379.9473174094264,172.58760125673598
318.026,318.026,371.76736954956164,379.9685841011989,172.60100140876204
318.033,318.033,371.94366726306714,379.992408344692,172.63961656488476
318.04,318.04,372.13342698877466,380.01476129694305,172.70492112926468
318.047,318.047,372.3346826379993,380.0329267446361,172.79458182190137
318.053,318.053,372.54202517529643,380.0464582305217,172.90264991175633
318.06,318.06,372.74733177773476,380.0572810169939,173.02062790424966
318.067,318.067,372.941395255387,380.0690099563891,173.13910682598598
318.074,318.074,373.11588465076625,380.08581568240385,173.24964481348175
318.08,318.08,373.2651074185886,380.1111859615579,173.34646937580231
318.087,318.087,373.387215794777,380.1469069492209,173.42748768889118
318.094,318.094,373.48455425392507,380.1925675956624,173.49429414972812
318.101,318.101,373.5630032539518,380.2457125348483,173.55129361204266
318.107,318.107,373.6305835477907,380.30250075707175,173.60433385976756
318.114,318.114,373.69587855236404,380.3585738072345,173.65927026615037
318.121,318.121,373.76667391454095,380.40986687611627,173.72078566431185
318.128,318.128,373.84890311912943,380.4532305844115,173.7916143925761
318.134,318.134,373.9459379299749,380.4868429905613,173.87215131601565
318.141,318.141,374.05833884696915,380.5103997039502,173.96040450624182
318.148,318.148,374.1841317962437,380.5250226943136,174.05231837272322
318.155,318.155,374.3195409438697,380.53288164039617,174.1424533765852
318.161,318.161,374.4599947024231,380.5366654670494,174.22487779128542
318.168,318.168,374.60115521035385,380.5390774932857,174.2940580414805
318.175,318.175,374.7397174424318,380.5424453308368,174.34555699604323
318.182,318.182,374.8738137617178,380.5484675124845,174.37639058594306
318.188,318.188,375.00300722589543,380.5580770066661,174.38497662555318
318.195,318.195,375.1279823061335,380.57139833474537,174.3991366472104
318.202,318.202,375.2501214390856,380.58780329732195,174.43576117525024
318.209,318.209,375.37122196623164,380.6060478622805,174.4939094601012
318.215,318.215,375.49354069958224,380.62441303532773,174.57195396662624
318.222,318.222,375.62002186941334,380.6407791014292,174.66752983671782
318.229,318.229,375.75435066914315,380.65267346247396,174.77757239735217
318.236,318.236,375.9007736130636,380.6574488591756,174.89856899349988
318.242,318.242,376.0640030151127,380.6623753634463,175.0272668779336
318.249,318.249,376.249038575119,380.679661241289,175.1617440422544
318.256,318.256,376.4601304300862,380.71255108036985,175.30214552394307
318.263,318.263,376.6981979988225,380.7646211443331,175.4502312455322
318.269,318.269,376.95697073430324,380.83783846910114,175.60737029641882
318.276,318.276,377.2217211696573,380.93076449004855,175.77226521398643
318.283,318.283,377.473931627455,381.03926050347826,175.93973268849643
318.29,318.29,377.6970531381997,381.15782012575886,176.10058629696994
318.296,318.296,377.87812476226577,381.27848058504156,176.24363797748634
318.303,318.303,378.0073246595128,381.3881631585123,176.35961691051878
318.31,318.31,378.07731399908215,381.46699111607904,176.44395897947678
318.317,318.317,378.0814190497008,381.4889238355128,176.49689855591427
318.323,318.323,378.1511431418649,381.5527710789495,176.52180554912073
318.33,318.33,378.3037326351708,381.72882316318663,176.52295931682755
318.337,318.337,378.54681861168234,382.0357325865567,176.5424326686903
318.344,318.344,378.8834948086612,382.4810876337228,176.5819458531727
318.35,318.35,379.3100690616398,383.06073401892746,176.6436958380593
318.357,318.357,379.8150838447244,383.75976698332806,176.7316591423492
318.364,318.364,380.3794323274746,384.5539973510599,176.84976865210461
318.371,318.371,380.9775107452038,385.4116364338053,176.99995950115357
318.377,318.377,381.5795339890955,386.2957702569306,177.18061080737922
318.384,318.384,382.1543885427713,387.16672153105577,177.38456121503233
318.391,318.391,382.67007630620407,387.98002174400904,177.59402869114325
318.398,318.398,383.0874649290507,388.6780083919746,177.77424179091065
318.404,318.404,383.34853029632654,389.1826363543945,177.8768823031264
318.411,318.411,383.37194953554985,389.4002527241293,177.89306453774498
318.418,318.418,383.67306401413833,389.55977031386334,178.03521637965264
318.425,318.425,384.3552826199434,390.15519968786697,178.26386786680465
318.431,318.431,385.41359432203103,391.1853043948603,178.50500039812576
318.438,318.438,386.7722850573018,392.5687574769615,178.6768514541222
318.445,318.445,388.29837325793795,394.14553012114396,178.71565602594518
318.452,318.452,389.8293594795045,395.70795533495556,178.8388222847252
318.458,318.458,391.205805206712,397.0517709698075,179.11263119604155
318.465,318.465,392.3006438844486,398.0242297157022,179.49175800913073
318.472,318.472,393.03961068229796,398.55206413517044,179.91077602519493
318.479,318.479,393.4087548477395,398.6457842888723,180.29966531451947
318.485,318.485,393.4477912737319,398.90598323510966,180.59703137938715
318.492,318.492,393.66266001279564,399.3945381749516,180.7594562612586
318.499,318.499,394.04073511372667,399.96809161294317,180.76659077206725
318.506,318.506,394.49960641799976,400.49198128848695,180.91065652062716
318.512,318.512,394.9842194960813,400.86188059684514,181.17957850080464
318.519,318.519,395.47468309594484,401.0169744448641,181.53127061494882
318.526,318.526,395.9772494448696,401.0897470692841,181.91847162556041
318.533,318.533,396.50211480438213,401.35744274846974,182.30040566725503
318.539,318.539,397.0406743728892,401.74632012330267,182.65107260337078
318.546,318.546,397.5549117070669,402.15067764980256,182.9615387555841
318.553,318.553,397.98264183133597,402.4469116116653,183.2371576427399
318.56,318.56,398.25326317814375,402.51316892015853,183.49227670662853
318.566,318.566,398.3060374709316,402.77450459883124,183.74430716272144
318.573,318.573,398.507097146824,403.4167372313477,184.00819292687882
318.58,318.58,398.9656038084719,404.4348902912847,184.29368220409805
318.587,318.587,399.64595747328434,405.75917001964166,184.60614185315603
318.593,318.593,400.44917333939867,407.2549235515184,184.940807873518
318.6,318.6,401.18942563161,408.7258239523042,185.2658168157442
318.607,318.607,401.6345142632619,409.9328202984103,185.5179915082315
318.614,318.614,401.6516283456715,410.6519029649838,185.62937567077194
318.62,318.62,402.1378467135486,410.75469774650384,185.69875999647505
318.627,318.627,402.9380897520063,411.25032134039145,185.95137452039788
318.634,318.634,403.8148501305769,412.19146210847384,186.36181780941277
318.641,318.641,404.5461252780539,413.3509606347627,186.88848479972387
318.647,318.647,404.99127650139843,414.500868189586,187.48100764669906
318.654,318.654,405.10994255109824,415.4665157733938,188.0845535500804
318.661,318.661,405.275323957174,416.14986854571157,188.64300257273825
318.668,318.668,405.63478100598144,416.52744559946836,189.10303050165462
318.674,318.674,406.0873589822754,416.634303695695,189.42001422315965
318.681,318.681,406.54803844321896,416.7247970336979,189.56525100307505
318.688,318.688,406.96098485666784,416.9209037963492,189.59834153079325
318.695,318.695,407.30004009658745,417.13117150547214,189.79209206963134
318.701,318.701,407.5593765793092,417.2813873094372,190.10756972912262
318.708,318.708,407.73940758105607,417.3284395354577,190.4915277412936
318.715,318.715,407.83480880998223,417.3884847227495,190.88545730175355
318.722,318.722,407.8400166127766,417.5208659572507,191.23468582991447
318.728,318.728,407.9699362660089,417.661869466092,191.49577945521872
318.735,318.735,408.2497367637389,417.735033791905,191.64129718759756
318.742,318.742,408.6974231988605,417.80170684055184,191.661705162618
318.749,318.749,409.3170662846522,418.06237723583035,191.75873285895108
318.755,318.755,410.09554104062283,418.54559535171927,191.95112055444258
318.762,318.762,411.00352655170633,419.25153681719655,192.20635554787876
318.769,318.769,411.99894033672496,420.1515840402313,192.48456286594893
318.776,318.776,413.0278731575662,421.18539231460585,192.7372623997424
318.782,318.782,414.0188297828825,422.2548848259028,192.90351560865486
318.789,318.789,414.87603538717246,423.2242474896348,192.91696221581307
318.796,318.796,415.4871553366283,423.93608847244053,193.1012326942187
318.803,318.803,415.7517985166488,424.2456485545202,193.47698787154016
318.809,318.809,415.8871539492429,424.42745487710255,193.98080985554986
318.816,318.816,416.40840162127023,425.1020697591249,194.51343451421144
318.823,318.823,417.23516267347225,426.17911782725616,194.97111870843304
318.83,318.83,418.23980230025313,427.49959374296185,195.27182593348496
318.836,318.836,419.2764954864648,428.8746624596231,195.37097626438168
318.843,318.843,420.2122825451372,430.1269345374984,195.4760391375785
318.85,318.85,420.951527191993,431.1227862653939,195.75176562540204
318.857,318.857,421.44766417226424,431.789352501092,196.14107003652572
318.863,318.863,421.70158636278023,432.1163747105025,196.578120682028
318.87,318.87,421.7509108269232,432.1466631046591,197.00047082016061
318.877,318.877,421.84629026786536,432.33373257151965,197.35649091759763
318.884,318.884,422.01864350334176,432.64154965127796,197.6091685623857
318.89,318.89,422.20446774952535,432.97470574723354,197.73794624548395
318.897,318.897,422.35250998037156,433.2533899517449,197.73908633976322
318.904,318.904,422.42742977976434,433.42190237010993,197.8541351149088
318.911,318.911,422.4448852587361,433.45125633808084,198.06283530512053
318.917,318.917,422.5603344213771,433.5655226664638,198.33740307802717
318.924,318.924,422.77006620538447,433.80889529059556,198.65027715288107
318.931,318.931,423.0670133115523,434.15489460601765,198.9778501629382
318.938,318.938,423.446790961414,434.5716809690958,199.30209799131964
318.944,318.944,423.9074140650401,435.0284201551362,199.60878663408204
318.951,318.951,424.44322671807424,435.5021403213185,199.88410999962198
318.958,318.958,425.04482545504567,435.98260808528954,200.11439494720153
318.965,318.965,425.7050855396718,436.47142866213255,200.28792829157683
318.971,318.971,426.41864935686783,436.9751757041397,200.39551579378568
318.978,318.978,427.1721493917288,437.49638195017417,200.43072711474952
318.985,318.985,427.93164583411084,438.02696992189107,200.47049180330035
318.992,318.992,428.6333870133107,438.54721968963923,200.583424018752
318.998,318.998,429.1853998608913,439.03021016957774,200.7628031082623
319.005,319.005,429.48638475270945,439.4475276702793,200.99463947708506
319.012,319.012,429.51345241587427,439.77154968061956,201.25429796100616
319.019,319.019,429.8867672437983,439.973871318424,201.50524371979463
319.025,319.025,430.5486275108384,440.0236837580128,201.70240846673676
319.032,319.032,431.3770897960239,440.1567449017774,201.8005271529863
319.039,319.039,432.2208495356096,440.4943175021811,201.83635613905076
319.046,319.046,432.93912886147245,441.0400448149737,202.02263687316488
319.052,319.052,433.43040845971655,441.77540279540887,202.35519700060573
319.059,319.059,433.6444771551017,442.6626611348226,202.81214603764278
319.066,319.066,433.70844829527647,443.6522253271565,203.35922329257176
319.073,319.073,434.011723530411,444.6904115639256,203.9552411726177
319.079,319.079,434.4880048477336,445.72531622937146,204.55688985988934
319.086,319.086,435.0547882565386,446.71034023769374,205.12286735757493
319.093,319.093,435.6237286237644,447.6059130417577,205.61733422792673
319.1,319.1,436.11016046022786,448.38011288217916,206.0126935137126
319.106,319.106,436.4415510036743,449.00873694745775,206.29165193334387
319.113,319.113,436.56443870614544,449.4751324203912,206.44835205806422
319.12,319.12,436.67970814005434,449.76961634748034,206.48813908050266
319.127,319.127,437.0375117070946,449.8880076478715,206.5508567671924
319.133,319.133,437.61949557118277,449.94638005023563,206.69639412873323
319.14,319.14,438.39059384631406,450.1794171560286,206.90363956369066
319.147,319.147,439.3069131376963,450.5803775666354,207.15259989629863
319.154,319.154,440.32357833368485,451.1345027889845,207.42566452562218
319.16,319.16,441.4008350334654,451.8167247564548,207.70826816111713
319.167,319.167,442.50757249271555,452.592101596452,207.98952886673615
319.174,319.174,443.62272067182533,453.4188627126353,208.26292076102678
319.181,319.181,444.73587188063595,454.25270534437885,208.52654373844675
319.187,319.187,445.8479485535537,455.050944863705,208.78264382981402
319.194,319.194,446.9708659022864,455.7760787381665,209.0362102020495
319.201,319.201,448.12423914528364,456.39895193128314,209.2926734501273
319.208,319.208,449.32864213357425,456.9014921516687,209.55545597745348
319.214,319.214,450.5972968384221,457.2784315010544,209.824579215931
319.221,319.221,451.9293668785254,457.5372329923216,210.09691208472498
319.228,319.228,453.3073006025379,457.6959950718755,210.36768710128695
319.235,319.235,454.69859996322043,457.7798978118194,210.63243431198146
319.241,319.241,456.0606235938963,457.81705465709297,210.88847243586338
319.248,319.248,457.34643863065367,457.834463288193,211.13525048360765
319.255,319.255,458.51030220758844,457.85435837099715,211.37324737952704
319.262,319.262,459.5124403443402,457.89096823931425,211.6021554650966
319.268,319.268,460.3227613358042,457.9481202186857,211.81961418510505
319.275,319.275,460.92231081604353,458.0189133562762,212.020886886855
319.282,319.282,461.3026154463082,458.0883106373745,212.19917298011143
319.289,319.289,461.46527434612204,458.1379715096009,212.34649910906413
319.295,319.295,461.5075165191401,458.1513464894859,212.45520990946633
319.302,319.302,461.72987449427933,458.1856989636082,212.51967549427263
319.309,319.309,462.097047105222,458.27351653875996,212.5374465742885
319.316,319.316,462.56763824830955,458.41647460128075,212.56546114818843
319.322,319.322,463.1000406408117,458.61448106657866,212.63530346393802
319.329,319.329,463.6577334245631,458.8668914058266,212.74014217409123
319.336,319.336,464.2126858351684,459.172047773616,212.8703940330602
319.343,319.343,464.7467579534487,459.5259061294681,213.01414645489618
319.349,319.349,465.2516361888104,459.9209424244007,213.1579571999888
319.356,319.356,465.72770325685826,460.34613153459554,213.28798440619585
319.363,319.363,466.1819975738151,460.78809485914456,213.39142328069002
319.37,319.37,466.62553633415683,461.2329542399103,213.4580063921048
319.376,319.376,467.0704827178764,461.668325891495,213.48113843447686
319.383,319.383,467.5276443157894,462.0850469296385,213.50384618736112
319.39,319.39,468.0046454486488,462.4783280180069,213.57060985192146
319.397,319.397,468.50496443510286,462.8481796132715,213.67596477362366
319.403,319.403,469.02792823590863,463.1991506029404,213.81159602924555
319.41,319.41,469.5696283862255,463.539409913358,213.96736110153813
319.417,319.417,470.1245462881304,463.8791975674648,214.13231940253223
319.424,319.424,470.6875363983354,464.2288743635877,214.2955911415549
319.43,319.43,471.25566946733056,464.59698987721623,214.44697450188684
319.437,319.437,471.8293446337682,464.9887984861641,214.5773757408821
319.444,319.444,472.4123177589411,465.40551388080337,214.67917181612003
319.451,319.451,473.0108388763081,465.84439090678865,214.74660239737895
319.457,319.457,473.6324718433645,466.29954555627285,214.7761422711747
319.464,319.464,474.2850381758437,466.76332339229947,214.78561649385688
319.471,319.471,474.9757029225004,467.2280016199631,214.83300407762871
319.478,319.478,475.71002238428474,467.6875593805413,214.91546800583262
319.484,319.484,476.49098874028834,468.13913705061964,215.02907892286612
319.491,319.491,477.3183139249721,468.58374274774616,215.16945421849968
319.498,319.498,478.18807063230935,469.0259285822637,215.33227307380037
319.505,319.505,479.09268662674566,469.4726034924259,215.51362164386785
319.511,319.511,480.0213358593978,469.9314689240692,215.71016526870622
319.518,319.518,480.960739282975,470.40945755956454,215.91910949922814
319.525,319.525,481.8962938407541,470.91136295172373,216.1379581494607
319.532,319.532,482.81338745964905,471.4388094901262,216.3642157137738
319.538,319.538,483.69868685239726,471.989701239582,216.59521357130794
319.545,319.545,484.5411309987141,472.55821291442606,216.8281328566757
319.552,319.552,485.3323968988021,473.1352345485946,217.06013644017753
319.559,319.559,486.06673633240075,473.70896100379485,217.28840612952706
319.565,319.565,486.74024023219,474.26521924172465,217.50995287880437
319.572,319.572,487.3496905754956,474.7874055700688,217.72125182094874
319.579,319.579,487.89124150383964,475.2563088631696,217.91780420846047
319.586,319.586,488.3592436249254,475.65009324885807,218.0937043334004
319.592,319.592,488.74546928901464,475.94435948356244,218.2414055780204
319.599,319.599,489.0389582741972,476.1121930353362,218.35195109731274
319.606,319.606,489.22461057489085,476.12650205836275,218.41569586499668
319.613,319.613,489.2626499539119,476.3001248681592,218.4177756466428
319.619,319.619,489.47145542439984,476.738917561475,218.5383574692048
319.626,319.626,490.04459024439564,477.57082902775466,218.8643475378906
319.633,319.633,490.9766747390123,478.87868741217255,219.4648134756454
319.64,319.64,492.0648295942222,480.5836267698345,220.3396467913199
319.646,319.646,493.0003897967605,482.4494932671965,221.4177741546968
319.653,319.653,493.51662456613207,484.1917327622324,222.58673951177465
319.66,319.66,493.5507870323535,485.583238711688,223.72739019445785
319.667,319.667,494.10332234666726,486.5071200735798,224.7419333283628
319.673,319.673,495.00497227754425,486.9612177597439,225.5651255863008
319.68,319.68,496.0099068016745,487.02965891009967,226.1601775305398
319.687,319.687,496.86343655905983,487.21820623283054,226.5117241941639
319.694,319.694,497.35852352988906,487.52642519890367,226.62126956511247
319.7,319.7,497.3735429118176,487.8316834164936,226.73837804952896
319.707,319.707,497.8613457933118,488.0397712376131,227.0535332492519
319.714,319.714,498.7869738766621,488.0919929302001,227.52417485308362
319.721,319.721,500.02611228524637,488.2176839566589,228.09622982162355
319.727,319.727,501.4297617674485,488.5108998634662,228.71173347153146
319.734,319.734,502.854982990048,488.9370128742682,229.3191501629411
319.741,319.741,504.18623453837074,489.4478239217932,229.8818778307428
319.748,319.748,505.34601849308143,489.9926865987217,230.3818034365064
319.754,319.754,506.2961508877916,490.52718863809065,230.81767941065613
319.761,319.761,507.0331467550953,491.0173867530707,231.19984273354376
319.768,319.768,507.5817994183243,491.4399307755962,231.54335819428954
