Time,Time,Sum Acc X,Sum Acc Y,Sum Acc Z
101.338,101.338,1.2490483971752457e-05,0.0008093858171049186,8.79332322702119e-05
101.345,101.345,9.041527864518358e-05,0.007224692395404025,0.0007602713748315655
101.351,101.351,0.00032074312049585094,0.03220408448432926,0.003273783229280493
101.358,101.358,0.0007652247798378188,0.09746395470463531,0.009557378970884474
101.365,101.365,0.0013934354534220826,0.2289513546501635,0.021639246564837424
101.372,101.372,0.0019602824124640176,0.4501532394805983,0.04097735922425932
101.378,101.378,0.0022954838616328593,0.7764066130813243,0.0680272391239174
101.385,101.385,0.005808454989075321,1.2117634255522058,0.10215927151760673
101.392,101.392,0.01716216585472706,1.7487680266239671,0.1417864908931073
101.399,101.399,0.04343608796090026,2.3705250810402263,0.18449554256999798
101.405,101.405,0.09285853109995457,3.0539190301880375,0.22718588907818096
101.412,101.412,0.17323695258869234,3.773069258779331,0.26632528058610017
101.419,101.419,0.29089656025440314,4.502515643815875,0.2983002963185751
101.426,101.426,0.4498944659864393,5.2197213710496015,0.3198027919759303
101.432,101.432,0.6513078500698345,5.9065987932308355,0.32827545498992305
101.439,101.439,0.8929757498607717,6.550078126996448,0.3342212698229477
101.446,101.446,1.1700159977608515,7.141951590223839,0.354724420597284
101.453,101.453,1.4758760085510108,7.678264607573516,0.3891240845005039
101.459,101.459,1.8033599742965665,8.158459655584883,0.43670960120480845
101.466,101.466,2.145458485430733,8.584391033891315,0.4973271371054981
101.473,101.473,2.4964067441697195,8.959340182311795,0.5716355062117814
101.48,101.48,2.853216447323868,9.28719768931658,0.6611448813706606
101.486,101.486,3.217061417114126,9.571894015653386,0.7682768702662746
101.493,101.493,3.5930983384885273,9.817055398282175,0.8964636019767751
101.5,101.5,3.9869627683698963,10.025779599842126,1.0496779226267274
101.507,101.507,4.39796486694939,10.200204925512514,1.2305801118923043
101.513,101.513,4.813074698883274,10.340654713868705,1.4378075267896762
101.52,101.52,5.207069455528257,10.444974012638914,1.6642474724570668
101.527,101.527,5.549718269194431,10.509086481804394,1.8973326781531046
101.534,101.534,5.815263098071783,10.528931593593457,2.120895793127083
101.54,101.54,5.988539591368625,10.555053434987462,2.3177393806833186
101.547,101.547,6.065995117474602,10.624981032121923,2.4723293868301313
101.554,101.554,6.07832817105464,10.732664327155977,2.5731352138745307
101.561,101.561,6.167570177236824,10.869307249284864,2.6141454794129713
101.567,101.567,6.316662506497911,11.024910572947753,2.633045434722118
101.574,101.574,6.5071158717724,11.189582831345366,2.7068206065390994
101.581,101.581,6.721986708163155,11.354407718633743,2.826778071904325
101.588,101.588,6.948452408429448,11.512098955628277,2.9821684852670622
101.594,101.594,7.1788453150178,11.65765568954378,3.1613859626710856
101.601,101.601,7.409925921290559,11.788820394857641,3.352728064533899
101.608,101.608,7.641214104538918,11.906142612285748,3.5449971792509
101.615,101.615,7.873167849398317,12.012733252441489,3.7281323635799235
101.621,101.621,8.10574665927741,12.11378014151766,3.893867851755648
101.628,101.628,8.33776102154507,12.215820895183896,4.036367617840428
101.635,101.635,8.567038384438488,12.325882998578727,4.152751229964214
101.642,101.642,8.791033621405763,12.450683008827053,4.243337088066113
101.648,101.648,9.007453847602095,12.595979346684468,4.3114271216322875
101.655,101.655,9.214721132417719,12.76606630336483,4.362589124548293
101.662,101.662,9.412269457386934,12.963425641619926,4.403564275323447
101.669,101.669,9.600614507792999,13.188607023616584,4.441047858990088
101.675,101.675,9.781143216991335,13.440375918626929,4.480620497505111
101.682,101.682,9.955720981340015,13.716078651259217,4.526046781115006
101.689,101.689,10.126290281006185,14.012101985620422,4.579031544524304
101.696,101.696,10.29461137654394,14.324306979876196,4.639397230813837
101.702,101.702,10.462208241555125,14.648383884241428,4.705558734704492
101.709,101.709,10.630433746919362,14.980123470193698,4.775105002497849
101.716,101.716,10.80049911725841,15.315602043605917,4.845305116752411
101.723,101.723,10.973399607460564,15.65130138131821,4.913463854987643
101.729,101.729,11.14975780439804,15.98424275062954,4.977138259885355
101.736,101.736,11.329621813144621,16.312187852629606,5.034249307620475
101.743,101.743,11.512320031073198,16.633833717362723,5.083148945908028
101.75,101.75,11.69651412808394,16.948882863474573,5.122707573527522
101.756,101.756,11.880457832334711,17.257963315876722,5.1524314632450725
101.763,101.763,12.062332925219838,17.56244779209627,5.172569395597055
101.77,101.77,12.24053974947564,17.86421477462358,5.184148367532689
101.777,101.777,12.413869722746853,18.165396134766656,5.188881873015444
101.783,101.783,12.58152461309008,18.46815835984774,5.188941142222626
101.79,101.79,12.742998967336712,18.77452059963985,5.191239933385258
101.797,101.797,12.897916280405752,19.0861798785458,5.1937486956543255
101.804,101.804,13.045923978509977,19.404329747511085,5.194723573725231
101.81,101.81,13.18665212443173,19.72950380304246,5.196517408864684
101.817,101.817,13.319688148057693,20.061504016726545,5.2018679110644115
101.824,101.824,13.444592690873915,20.399454212719167,5.211359392162806
101.831,101.831,13.561000276174672,20.741989038088544,5.225726738508774
101.837,101.837,13.668732031004431,21.08757823894483,5.2461190759022935
101.844,101.844,13.767747373249602,21.434948818964603,5.274071881061479
101.851,101.851,13.857910066043132,21.783485797096052,5.311149763925524
101.858,101.858,13.938802889990816,22.133468858926488,5.358372491979388
101.864,101.864,14.009752208981658,22.48607155863108,5.4156307992698665
101.871,101.871,14.069950186578415,22.843113879380873,5.481322043393263
101.878,101.878,14.118550306004403,23.206576131738068,5.552346572965226
101.885,101.885,14.154934595881887,23.577861610693965,5.62452300078835
101.891,101.891,14.179477497652464,23.95687787177947,5.693384340642149
101.898,101.898,14.194450052995125,24.34126365082416,5.755075445022131
101.905,101.905,14.204213160511248,24.726113365302112,5.8069058979312675
101.912,101.912,14.214603312555976,25.104212446805683,5.847325528827654
101.918,101.918,14.232071548681338,25.466650131623283,5.875491863133083
101.925,101.925,14.26276258628965,25.80383600228508,5.890726013093883
101.932,101.932,14.311389930874752,26.106963425693355,5.892021133096654
101.939,101.939,14.380033990806126,26.369744171872227,5.906324595124055
101.945,101.945,14.467313935516405,26.58999429257346,5.938578344739266
101.952,101.952,14.568349838829109,26.77053863771734,5.991537419464289
101.959,101.959,14.675607950834571,26.919045062029845,6.067747793689387
101.966,101.966,14.780347609977483,27.0467713735409,6.16867108007431
101.972,101.972,14.874210534884135,27.166594886662764,6.2937816157058535
101.979,101.979,14.950584826024443,27.290899112049125,6.439940743663757
101.986,101.986,15.00558435671118,27.42980078123529,6.601190570525758
101.993,101.993,15.038592934859777,27.589912527804792,6.768992394777595
101.999,101.999,15.052288833667397,27.773659966626827,6.93295020527047
102.006,102.006,15.052463940983259,27.979189372987076,7.082008060497604
102.013,102.013,15.05927573982244,28.200917587048636,7.205960125660625
102.02,102.02,15.064933758862372,28.430667655818834,7.29694524723491
102.026,102.026,15.067502767725987,28.659155039243796,7.350513109296857
102.033,102.033,15.083664118133534,28.877487657683716,7.366004455803246
102.04,102.04,15.116609443414227,29.078423379497725,7.385684259724634
102.047,102.047,15.167430693204144,29.257266674439162,7.434637650538227
102.053,102.053,15.235498679240186,29.412289673143107,7.504748893630444
102.06,102.06,15.318842156456228,29.544547727060266,7.586679090144089
102.067,102.067,15.41448661896829,29.65713484661341,7.67106375335919
102.074,102.074,15.518855472514316,29.754178072999885,7.749732406534834
102.08,102.08,15.62805879581952,29.839959473640228,7.816722653146566
102.087,102.087,15.737781362902133,29.91842243207204,7.868949759078606
102.094,102.094,15.842918503202913,29.99304678769801,7.906448195619853
102.101,102.101,15.937506384537134,30.066860190303213,7.9321151918120405
102.107,102.107,16.015239023438152,30.142405354942053,7.950975474640328
102.114,102.114,16.070320875632117,30.221655488101177,7.9691118387008375
102.121,102.121,16.098317981817925,30.305853801533488,7.99244318733808
102.128,102.128,16.099712988993165,30.39521646487791,8.025506657455004
102.134,102.134,16.130205616267304,30.488650057888965,8.070433604055927
102.141,102.141,16.187116252158262,30.583768597364333,8.126432407660916
102.148,102.148,16.26621830343525,30.67729433420189,8.190089516471431
102.155,102.155,16.362637671321995,30.765733575164173,8.256441447792167
102.161,102.161,16.471472042438872,30.846150263540153,8.320349533192362
102.168,102.168,16.588129242696446,30.91676288849015,8.377664418973952
102.175,102.175,16.708478286300192,30.97712829547422,8.425877780217254
102.182,102.182,16.828960465105858,31.02792116428657,8.464151646837534
102.188,102.188,16.94676610590685,31.070497915380137,8.492781272122214
102.195,102.195,17.059993553726386,31.106377559029482,8.512311894682917
102.202,102.202,17.167628525755234,31.136687697128817,8.522681295365604
102.209,102.209,17.26936710711407,31.161731484272053,8.522795643818583
102.215,102.215,17.36546117638424,31.18089591771336,8.53485283709968
102.222,102.222,17.456627844321055,31.192918837519805,8.561111820208646
102.229,102.229,17.543900916420196,31.19632928365328,8.602857681829347
102.236,102.236,17.62838851583142,31.202785194651224,8.659964970660583
102.242,102.242,17.71104257005355,31.219863508079122,8.730589135947312
102.249,102.249,17.792547433380502,31.24770523365853,8.81118564383576
102.256,102.256,17.873337484711815,31.285743065939876,8.896769154734164
102.263,102.263,17.953633870171483,31.332566057988636,8.98138277997095
102.269,102.269,18.033368702036935,31.385936731851828,9.058811756991267
102.276,102.276,18.11199673388349,31.4431537343822,9.12354560448954
102.283,102.283,18.188380745461707,31.501651773850202,9.171812950456019
102.29,102.29,18.260973165247528,31.559552423042106,9.20233238932392
102.296,102.296,18.328284264674753,31.61597066474115,9.216476902637257
102.303,102.303,18.38936343245347,31.671036549484683,9.217827120513455
102.31,102.31,18.444035659014894,31.725658646552635,9.224249918193442
102.317,102.317,18.492935451441596,31.78112305509957,9.232737641861874
102.323,102.323,18.537313135434875,31.83882916881292,9.237603266462893
102.33,102.33,18.57859902152212,31.900257150774213,9.241206875786109
102.337,102.337,18.618336718200037,31.96710418064928,9.256426978304175
102.344,102.344,18.65797360025932,32.04197720535651,9.284403399522857
102.35,102.35,18.697493497308265,32.128840639006484,9.324934575817094
102.357,102.357,18.73483492272816,32.2316679642929,9.377296982034784
102.364,102.364,18.767603381343978,32.35257114584304,9.440111445530786
102.371,102.371,18.794827767624053,32.49147102245606,9.510486940035474
102.377,102.377,18.817246397112726,32.64660789614274,9.583454456920233
102.384,102.384,18.83709061484467,32.81473832067983,9.652184321256454
102.391,102.391,18.857788007926487,32.991259875151584,9.70887905342491
102.398,102.398,18.883167948706962,33.17046682563387,9.7460165992217
102.404,102.404,18.916396042680248,33.34586567347088,9.757620909897714
102.411,102.411,18.95939366465911,33.510916950847935,9.774856253621802
102.418,102.418,19.01302113199751,33.66050317386907,9.820714283025888
102.425,102.425,19.077421642468295,33.7926328603504,9.891090041194111
102.431,102.431,19.15184894748551,33.90925321417301,9.9784212798858
102.438,102.438,19.234097906703006,34.01564894367552,10.073072504272092
102.445,102.445,19.320094388503396,34.11931306522226,10.165286136321503
102.452,102.452,19.40406991142382,34.22916135503048,10.246913269645066
102.458,102.458,19.479521095817322,34.3546829984759,10.312345318675865
102.465,102.465,19.540697415396014,34.50437767896613,10.358502239040826
102.472,102.472,19.583990831255612,34.68375285212778,10.38412019610188
102.479,102.479,19.60875074319267,34.89377745259889,10.388871498601022
102.485,102.485,19.617358996258403,35.13053607759114,10.404894262678866
102.492,102.492,19.620108570020072,35.38624478435783,10.441140864587105
102.499,102.499,19.628101186640915,35.65115173427948,10.496255049979299
102.506,102.506,19.635118552217687,35.91546803490163,10.567816419333193
102.512,102.512,19.635839228882435,36.170588615875786,10.652421143741051
102.519,102.519,19.645288224303126,36.409425392444085,10.746100530616301
102.526,102.526,19.667299155506466,36.626169939732975,10.84490504011851
102.533,102.533,19.703198711084013,36.81589622757113,10.94543936439293
102.539,102.539,19.753895421058544,36.97433209687267,11.045180156924658
102.546,102.546,19.820411399860838,37.09797247916589,11.142511431133242
102.553,102.553,19.90398636732837,37.18444906843807,11.23654377766129
102.56,102.56,20.00575017717723,37.232917299696254,11.326870891818643
102.566,102.566,20.126281380473173,37.24427871172749,11.413403209813849
102.573,102.573,20.265349448012113,37.26737596995607,11.49632956957115
102.58,102.58,20.421896625786754,37.320726367771584,11.576163272531426
102.587,102.587,20.59416306416848,37.39888949331013,11.653773781705937
102.593,102.593,20.779898813287165,37.49568040564256,11.730309219612273
102.6,102.6,20.97676111898757,37.60495560224201,11.806984328606568
102.607,102.607,21.1829362837331,37.72169015373959,11.884822105540037
102.614,102.614,21.39770800060114,37.84305041753123,11.964491933259291
102.62,102.62,21.621609850412344,37.96903780731874,12.046326002491737
102.627,102.627,21.8560964131034,38.10247921272209,12.130483462151243
102.634,102.634,22.103026522895654,38.24854014960334,12.217054732060717
102.641,102.641,22.364344562964316,38.414193340105896,12.305821411679592
102.647,102.647,22.64194292292458,38.60782442759815,12.395665584052084
102.654,102.654,22.937162620026612,38.83843457234954,12.483862441009922
102.661,102.661,23.248617092225437,39.11267884255895,12.564401098207812
102.668,102.668,23.564454465069666,39.425401127734126,12.622817582817861
102.674,102.674,23.846404759479043,39.73955953060387,12.630001787028625
102.681,102.681,24.01686287863556,39.96437463215342,12.712897434070852
102.688,102.688,24.06225266309007,39.97091812747488,12.912464070832266
102.695,102.695,24.41131809503287,40.3582003917278,13.218984744841187
102.701,102.701,25.088822386507445,41.217924900757595,13.580980717711446
102.708,102.708,26.04076200948229,42.539279936840884,13.922087920535795
102.715,102.715,27.155597164871846,44.207755690214874,14.16773305873451
102.722,102.722,28.301202683730086,46.04032770794989,14.267906951386742
102.728,102.728,29.35579302104389,47.83362545042696,14.327071700095043
102.735,102.735,30.226166918930556,49.405378785613685,14.525166198700674
102.742,102.742,30.856347193886716,50.62274939885331,14.819807044752565
102.749,102.749,31.229344938401702,51.41842227463614,15.161371568226265
102.755,102.755,31.362653497616506,51.79396343935659,15.503115279607686
102.762,102.762,31.426256827983917,51.8095775627371,15.805691275218521
102.769,102.769,31.629660999514716,52.05556742151886,16.039004342352882
102.776,102.776,31.91176040658606,52.45048655017418,16.18342750104971
102.782,102.782,32.216269335781504,52.88794003167632,16.230397289500196
102.789,102.789,32.49864480786046,53.28221170099542,16.278826940338057
102.796,102.796,32.730323255598314,53.5758448147356,16.41143620009787
102.803,102.803,32.89940004168015,53.74094157534318,16.609989099795804
102.809,102.809,33.007883193533544,53.77559709044149,16.85182641507639
102.816,102.816,33.067002140208665,53.85363372876869,17.112741973915714
102.823,102.823,33.09242325529757,54.014215719219266,17.369892687605496
102.83,102.83,33.10043855202238,54.22190840274683,17.604299611993575
102.836,102.836,33.10530467897659,54.44231484733622,17.80245919132044
102.843,102.843,33.11760112688444,54.647016024803214,17.956823794138707
102.85,102.85,33.14349822381488,54.81658519930709,18.065324338943377
102.857,102.857,33.18488284558679,54.94139888439303,18.130406752020278
102.863,102.863,33.24019312686159,55.02056466609515,18.157947237362293
102.87,102.87,33.3056456450424,55.059745910687724,18.159660614336904
102.877,102.877,33.376606279349474,55.068900466660715,18.180695580784352
102.884,102.884,33.448325436817704,55.076889267530284,18.210389874934688
102.89,102.89,33.51564357760919,55.08761541173928,18.23906185484077
102.897,102.897,33.573420334369125,55.08835385750114,18.259852246350817
102.904,102.904,33.61855455601661,55.10524019487003,18.269318251019214
102.911,102.911,33.65162876964418,55.14157491333701,18.27204053259969
102.917,102.917,33.6767657508069,55.194999416237074,18.28660065420713
102.924,102.924,33.7001241198674,55.26100875229656,18.312591504966083
102.931,102.931,33.72800105158696,55.33441439836146,18.35020394295
102.938,102.938,33.76546059151091,55.410116450302915,18.400225394721428
102.944,102.944,33.81577153176951,55.48350232332628,18.463469518964704
102.951,102.951,33.8802666213088,55.55081923927109,18.53991432515074
102.958,102.958,33.95831746177106,55.60941447390141,18.62780260434644
102.965,102.965,34.04760303879459,55.65772082409138,18.72301598733112
102.971,102.971,34.14494168103303,55.69529831320306,18.819116696458938
102.978,102.978,34.24730870194305,55.72298782509247,18.90825500917881
102.985,102.985,34.35215781814842,55.74282944120523,18.98273336197046
102.992,102.992,34.45669014738384,55.757830381747205,19.036692968570733
102.998,102.998,34.55675164118544,55.77196376989471,19.067336218251853
103.005,103.005,34.646499672552395,55.79041120813944,19.07539626400474
103.012,103.012,34.71923056825828,55.81983543490347,19.08595355569461
103.019,103.019,34.768720216328575,55.86844062877954,19.109002252098026
103.025,103.025,34.79050717923798,55.945321290402944,19.13795262370382
103.032,103.032,34.79798710070131,56.05852086796244,19.167587158570328
103.039,103.039,34.832595644784746,56.211919357343575,19.195402928652726
103.046,103.046,34.88822189614663,56.40212334755832,19.221992603579984
103.052,103.052,34.95511729056342,56.61692167949857,19.250444046119497
103.059,103.059,35.02092811645895,56.83618074637698,19.285122877824794
103.066,103.066,35.072356922659345,57.034931832931505,19.330236711004556
103.073,103.073,35.09708554668823,57.187667994569054,19.388505183297553
103.079,103.079,35.10868382379184,57.27260119259274,19.460315135952214
103.086,103.086,35.16246785618215,57.27478252784998,19.543690397389753
103.093,103.093,35.260341691236704,57.36197896610362,19.63505924661388
103.1,103.1,35.40087298010346,57.536890915326424,19.730429422764875
103.106,103.106,35.580359440157295,57.790769252290865,19.82649096106124
103.113,103.113,35.793972206921445,58.10979661193061,19.92127927483479
103.12,103.12,36.03673778216197,58.477552565120206,20.014162960424883
103.127,103.127,36.30424960614524,58.8774822901236,20.105171651551014
103.133,103.133,36.5930363029256,59.294949925446524,20.194056653741956
103.14,103.14,36.90059946787107,59.71872634257855,20.27967409053443
103.147,103.147,37.22544669168616,60.142083506997615,20.360050881365098
103.154,103.154,37.56748311014604,60.56360734954521,20.432875636030662
103.16,103.16,37.92848024787397,60.98742174695758,20.49566366231072
103.167,103.167,38.31187729975774,61.42245162702875,20.545176980058358
103.174,103.174,38.72169158735797,61.88098381192645,20.57656904638939
103.181,103.181,39.16116446134935,62.37731945251934,20.583078919572067
103.187,103.187,39.631861566724474,62.926964899336326,20.609499072781
103.194,103.194,40.13324326724553,63.545448325111884,20.677162890530635
103.201,103.201,40.658556224011214,64.24248187019535,20.79641833171744
103.208,103.208,41.17860122168387,65.00147310098282,20.987290542268195
103.214,103.214,41.618221603687175,65.74362680062092,21.28279751721088
103.221,103.221,41.854898670776635,66.31179864094872,21.708497483654604
103.228,103.228,41.9475796954238,66.51426262692084,22.244738814131694
103.235,103.235,42.43519642920614,66.82152440491063,22.809446161447003
103.241,103.241,43.28751941209762,67.675419453588,23.282938649600673
103.248,103.248,44.39346781180579,68.99719612432163,23.555231735074145
103.255,103.255,45.60301530005654,70.62037113210998,23.56476445367926
103.262,103.262,46.76746310135864,72.33265839706738,23.815524305144994
103.268,103.268,47.766818498690384,73.91938183873768,24.267207153330787
103.275,103.275,48.523646387508656,75.20261812221403,24.826654288263132
103.282,103.282,49.005205757251005,76.0701237499523,25.395079152043444
103.289,103.289,49.21806496799349,76.48834910370668,25.889723039308148
103.295,103.295,49.236280409439765,76.49753005704865,26.254009792552317
103.302,103.302,49.42636775330622,76.8029914072773,26.459074308643917
103.309,103.309,49.718652050162156,77.30164277825551,26.501267086086756
103.316,103.316,50.04483035050756,77.87152058978734,26.604839102452285
103.322,103.322,50.3477351775879,78.41016011718673,26.822170862247567
103.329,103.329,50.58705258876842,78.84567122487141,27.112892329804254
103.336,103.336,50.74110857460865,79.13924272699896,27.434427799648514
103.343,103.343,50.80527452364984,79.2812143211576,27.74668639280651
103.349,103.349,50.82248479494277,79.28433914430403,28.015069009108043
103.356,103.356,50.90383596617317,79.39156807823953,28.212781916412382
103.363,103.363,51.02770366692418,79.57151015936122,28.32307774787445
103.37,103.37,51.17240508328897,79.78466969897678,28.340694520932214
103.376,103.376,51.31957588356461,79.99664435286147,28.409813545301457
103.383,103.383,51.45575605901161,80.18268608024728,28.550536587900638
103.39,103.39,51.5727952701322,80.32901016720787,28.7416444846668
103.397,103.397,51.66796862539496,80.43174102533652,28.959066016038932
103.403,103.403,51.74357856638608,80.49480565301728,29.178394414851105
103.41,103.41,51.80553403702283,80.52725213912807,29.37664922779011
103.417,103.417,51.86142755966594,80.54010305757548,29.53404384263555
103.424,103.424,51.919139336015746,80.54353550081099,29.636227975294343
103.43,103.43,51.98637009155073,80.54580350018553,29.676318996735393
103.437,103.437,52.07080198580115,80.55453976166308,29.69703524637609
103.444,103.444,52.18031730803332,80.57865627936056,29.769854376790995
103.451,103.451,52.322215985134854,80.62776684404814,29.880203344935147
103.457,103.457,52.50035914275658,80.70830589275367,30.009583441295828
103.464,103.464,52.71105412809885,80.81856306670221,30.137679265036933
103.471,103.471,52.94022434084856,80.94535815410902,30.244436939700297
103.478,103.478,53.16354879049494,81.06375734510797,30.311995760858093
103.484,103.484,53.34938206213831,81.13989210371408,30.326367855535658
103.491,103.491,53.46337123024187,81.14368665738071,30.373843084668916
103.498,103.498,53.47370498334662,81.2626344286631,30.485227457045916
103.505,103.505,53.591268304906436,81.52353869282653,30.65504754165313
103.511,103.511,53.849429272380696,81.94041133789158,30.86992347673566
103.518,103.518,54.24723136083548,82.51277058564814,31.10912901095476
103.525,103.525,54.770252438794635,83.22682825972592,31.34658417920699
103.532,103.532,55.39295941163216,84.05883283355473,31.554307659579546
103.538,103.538,56.082764213057985,84.97941307420848,31.70665719189877
103.545,103.545,56.8044215417236,85.95686836796274,31.78341835118093
103.552,103.552,57.51992878251843,86.95482424746535,31.79902730157701
103.559,103.559,58.17820185549224,87.91951702899466,31.927469965072703
103.565,103.565,58.70177436497625,88.76319948492501,32.19385378655236
103.572,103.572,58.99453648940176,89.36694943740922,32.611823503764946
103.579,103.579,59.00895363981385,89.61702324529654,33.16048928670925
103.586,103.586,59.34710751400563,89.78152267819242,33.77730603571113
103.592,103.592,59.95734124728026,90.3443339079279,34.373982627628095
103.599,103.599,60.74154148253984,91.2195300667017,34.86231648899584
103.606,103.606,61.58496986365091,92.27638605162451,35.17598786161188
103.613,103.613,62.38001832953818,93.36754404419825,35.28335696564854
103.619,103.619,63.04148055243145,94.35471045435838,35.37590322561726
103.626,103.626,63.514871042402255,95.12982317697566,35.62963369833112
103.633,103.633,63.77887057076411,95.62903998378506,35.98537388308089
103.64,103.64,63.842607024481396,95.83716575445622,36.376590297490594
103.646,103.646,63.94623490354593,95.89175004077907,36.74022935928844
103.653,103.653,64.1695988473237,96.14941736408525,37.025001978397356
103.66,103.66,64.45995607762217,96.5352146686401,37.19739453036046
103.667,103.667,64.76789315418662,96.97387803792263,37.24469050565266
103.673,103.673,65.0532902369655,97.40053529937892,37.314893494070496
103.68,103.68,65.28832199761976,97.76649586441191,37.47829399793235
103.687,103.687,65.45793217538154,98.04159159299752,37.69993998465265
103.694,103.694,65.55841659288572,98.21423263632876,37.941727470240615
103.7,103.7,65.59458701991754,98.28922590056916,38.16970781437649
103.707,103.707,65.6126558294423,98.29481377272316,38.359256301836155
103.714,103.714,65.67211261355165,98.35670732863946,38.49689505675724
103.721,103.721,65.75906434105993,98.44856241825543,38.57906976617375
103.727,103.727,65.86038612891394,98.54673517449767,38.60921621957338
103.734,103.734,65.9655903572342,98.63399899593924,38.62381131614884
103.741,103.741,66.06789522036287,98.7014735369973,38.674275795570466
103.748,103.748,66.16419712755558,98.74845449423634,38.751284298900835
103.754,103.754,66.25480200949329,98.78064540031018,38.84542367200803
103.761,103.761,66.3438655322244,98.80814952018838,38.947277837136575
103.768,103.768,66.43989634652863,98.84395098538366,39.0477760188919
103.775,103.775,66.55443430050835,98.90175561007267,39.13926780341286
103.781,103.781,66.69810255525323,98.99196426958966,39.21715592906222
103.788,103.788,66.87518531696787,99.11651124594503,39.2813198696476
103.795,103.795,67.07888080197428,99.26472475824126,39.33664098932935
103.802,103.802,67.28931799599515,99.41224003813727,39.39235342629033
103.808,103.808,67.47548101283574,99.52383417096229,39.46026928965109
103.815,103.815,67.60066480197314,99.55950796987807,39.552212088013405
103.822,103.822,67.62968061923053,99.6371115734008,39.677284028499955
103.829,103.829,67.72388618515943,99.85619665995546,39.83973020615406
103.835,103.835,67.95603253556325,100.23178853891633,40.03793742962346
103.842,103.842,68.32740292304258,100.76470199090622,40.26451159447351
103.849,103.849,68.82726735476417,101.44315101789171,40.506997109658386
103.856,103.856,69.43566927667555,102.24625259068385,40.7490969842569
103.862,103.862,70.1267808069185,103.14859653321862,40.97264937315969
103.869,103.869,70.87211732616315,104.1243968046413,41.15998131469543
103.876,103.876,71.63915953844447,105.14687116173248,41.29315065819505
103.883,103.883,72.37837707264006,106.17450729894259,41.34637397296997
103.889,103.889,73.00582003730929,107.12500369173455,41.411894779820535
103.896,103.896,73.40744013817195,107.86510381444565,41.63252955369586
103.903,103.903,73.47856307235716,108.24531351236224,42.01014522243207
103.91,103.91,73.78376229879565,108.3302728065177,42.493276015479914
103.916,103.916,74.43089402384078,108.90140767063679,42.98922038748168
103.923,103.923,75.32135448905099,109.89142077799421,43.39554753678462
103.93,103.93,76.32612833479028,111.16264590654679,43.63111905198965
103.937,103.937,77.316523815978,112.5353097108682,43.65540143906512
103.943,103.943,78.18408692198426,113.82266270183885,43.83739134355891
103.95,103.95,78.85233424422836,114.86735118899534,44.18228953333736
103.957,103.957,79.28313803700922,115.56926065244247,44.62321106447626
103.964,103.964,79.47640138763222,115.89723805307624,45.086944204866086
103.97,103.97,79.4898852629829,115.91079438312659,45.50856985115094
103.977,103.977,79.65907408493585,116.18761560753168,45.840656246646894
103.984,103.984,79.92371152993054,116.62632291107113,46.056968160927646
103.991,103.991,80.22420710427298,117.12398834804229,46.151888590685836
103.997,103.997,80.50947449159743,117.59254741340418,46.16719049266822
104.004,104.004,80.742223144705,117.96871545863534,46.27057880606807
104.011,104.011,80.90148968687421,118.21792427734343,46.434812545251894
104.018,104.018,80.98225573368019,118.33334154939237,46.63199964497366
104.024,104.024,80.99228596518685,118.33577051243078,46.83659079759486
104.031,104.031,81.03730458958876,118.42515518778032,47.027528562741914
104.038,104.038,81.11860974275086,118.56440018992052,47.18970122605939
104.045,104.045,81.21776213849904,118.71751013279903,47.314286775171546
104.051,104.051,81.31833840365051,118.85493104130988,47.39801165651971
104.058,104.058,81.40741735536425,118.95790795601154,47.44196555124231
104.065,104.065,81.47754745011518,119.02082714257537,47.45056299679797
104.072,104.072,81.52756926153091,119.04933858190817,47.47011732901887
104.078,104.078,81.56181931258179,119.05547600202276,47.50807661833496
104.085,104.085,81.58890380950957,119.05755411806084,47.552851956725
104.092,104.092,81.61987419893005,119.06102662709942,47.59265635160776
104.099,104.099,81.66486615267434,119.08093479103484,47.61799015939691
104.105,104.105,81.72880114902586,119.12186605834721,47.624314502871826
104.112,104.112,81.80806476803917,119.17912135843173,47.634720688859694
104.119,104.119,81.88970812345195,119.23805521661863,47.65264211424745
104.126,104.126,81.95332518374667,119.27619806170433,47.66385187797665
104.132,104.132,81.9746635019866,119.28526122876349,47.67508606678152
104.139,104.139,82.01943142945164,119.36755603955801,47.721845839846715
104.146,104.146,82.1496662910539,119.54493422504024,47.810951747178024
104.153,104.153,82.37728385615317,119.83258615065498,47.94113339133881
104.159,104.159,82.70538013409923,120.23810563636394,48.10372870442054
104.166,104.166,83.12863169860155,120.76178885987976,48.2856565586869
104.173,104.173,83.63481097668576,121.39724960486592,48.473000112280566
104.18,104.18,84.20378153263148,122.1297215773312,48.65146981933798
104.186,104.186,84.79900787688695,122.92681910425216,48.800698113564096
104.193,104.193,85.3559736998591,123.72186051897287,48.88862545418943
104.2,104.2,85.78514591734232,124.40764528698342,48.897707733580305
104.207,104.207,85.99983669814297,124.86141960013575,49.02150845626034
104.213,104.213,86.04721449595027,124.99074158157086,49.24371522784264
104.22,104.22,86.34722191200804,125.21527660513671,49.517370646812644
104.227,104.227,86.84145870609659,125.7574183187615,49.781806955884136
104.234,104.234,87.44469428353878,126.5324572931268,49.98105906593625
104.24,104.24,88.06733172587006,127.42864577329321,50.07791117291827
104.247,104.247,88.63141185141977,128.32651824831794,50.09373540056756
104.254,104.254,89.0793168840892,129.11645744742333,50.20487231387584
104.261,104.261,89.37729896345655,129.71441463499946,50.373540454915336
104.267,104.267,89.51582897644734,130.07309564878528,50.55319212125132
104.274,104.274,89.52444744097428,130.18575732068123,50.69942213902364
104.281,104.281,89.65120345935264,130.2896220051746,50.777453801870905
104.288,104.288,89.85736529646368,130.554907442598,50.78863769799787
104.294,104.294,90.1017039212366,130.91435163207882,50.89497616881766
104.301,104.301,90.34663252637506,131.30125785825186,51.088511654831485
104.308,104.308,90.56263562234382,131.65916695039806,51.35038657939585
104.315,104.315,90.73055208928596,131.947611762649,51.65471381352625
104.321,104.321,90.84157038459841,132.1440791431942,51.97264597806068
104.328,104.328,90.89560427356405,132.24294096279988,52.2761915356524
104.335,104.335,90.8990912473571,132.2524009408283,52.5413443538444
104.342,104.342,90.93537888760943,132.31439344627896,52.75022905821672
104.348,104.348,90.99842196435345,132.42457135327587,52.89221877090666
104.355,104.355,91.07489784563083,132.55860397870876,52.96414830948844
104.362,104.362,91.1529586318291,132.69468682600692,52.96976217265555
104.369,104.369,91.2242694577012,132.81596237878045,53.0210892051367
104.375,104.375,91.28546121349181,132.9110855437944,53.116020824060634
104.382,104.382,91.33664394782927,132.97356914028845,53.23872451883858
104.389,104.389,91.37888921435841,133.00304100033668,53.37272451426995
104.396,104.396,91.4139969371169,133.0078559632396,53.50378691839753
104.402,104.402,91.44380803829667,133.0129352896135,53.621872675980484
104.409,104.409,91.46806554628812,133.01457431327927,53.72027358116663
104.416,104.416,91.48477076879041,133.02234914891872,53.79356517266093
104.423,104.423,91.49294230057195,133.0380600343607,53.83688703225446
104.429,104.429,91.49445060928863,133.05621803584165,53.84679374661986
104.436,104.436,91.49513201365122,133.0713400420388,53.87085307488125
104.443,104.443,91.49757130473925,133.0805536078555,53.925099018333604
104.45,104.45,91.50696495643204,133.0837100783708,54.000843802935904
104.456,104.456,91.52405963916067,133.0853665400234,54.0855530739773
104.463,104.463,91.54653162271863,133.0901967152126,54.165238854642894
104.47,104.47,91.57029753981945,133.0965686354755,54.22698307606877
104.477,104.477,91.59107964799955,133.1030309579905,54.260714361686105
104.483,104.483,91.60568446788751,133.10824859512712,54.2613148244847
104.49,104.49,91.6128223199094,133.1109338715629,54.298565883923125
104.497,104.497,91.61324624115258,133.11182579865746,54.370991885806674
104.504,104.504,91.61726029457574,133.11687719461077,54.4738608658911
104.51,104.51,91.62270404094053,133.12626048981858,54.59998997208018
104.517,104.517,91.62651011346905,133.13999672142185,54.7407360594859
104.524,104.524,91.62700506738679,133.15814865780476,54.88704756065863
104.531,104.531,91.63370689169267,133.18076096481258,55.030455381458864
104.537,104.537,91.64747047735456,133.2075878384783,55.163898221604384
104.544,104.544,91.66795927296,133.2378208507756,55.28228158554363
104.551,104.551,91.6937995115587,133.27003980402242,55.38271319777204
104.558,104.558,91.72302505033267,133.30246137011403,55.46443816017129
104.564,104.564,91.75361382653138,133.3333722412921,55.52854062056483
104.571,104.571,91.78389134147925,133.36155192133432,55.577483566869724
104.578,104.578,91.81271463358307,133.3865381119948,55.6145565790349
104.585,104.585,91.83949234949232,133.40868587554013,55.643292365596956
104.591,104.591,91.86411365543617,133.42902712929776,55.66692032660482
104.598,104.598,91.88679261713499,133.44895837966084,55.68794068990265
104.605,104.605,91.90783765194617,133.46983529339283,55.70788721849569
104.612,104.612,91.9274404524835,133.49259012548092,55.72729901466464
104.618,104.618,91.9455784546457,133.51746229758373,55.74585101592395
104.625,104.625,91.96201110917931,133.54389657624827,55.762562422767864
104.632,104.632,91.9763182965463,133.57064652553248,55.77604143524521
104.639,104.639,91.98800906087605,133.5960691840662,55.78473909129597
104.645,104.645,91.99672214142063,133.61851946205283,55.78718023453888
104.652,104.652,92.00242294273072,133.63674711485592,55.79218087916646
104.659,104.659,92.00548610424744,133.65023779868315,55.80530450078747
104.666,104.666,92.00667847527609,133.65944007558608,55.82654140131282
104.672,104.672,92.00712462247125,133.6658496665563,55.85508010106703
104.679,104.679,92.00827184477593,133.67196652166928,55.88934110241029
104.686,104.686,92.01172244877384,133.68105440952274,55.92714031546063
104.693,104.693,92.01874090727513,133.6965489534088,55.96586158530429
104.699,104.699,92.02954796879202,133.7211573303584,56.00261791405763
104.706,104.706,92.04286504359077,133.7560073027434,56.03447389912339
104.713,104.713,92.05600968934236,133.80024158180572,56.05874729212029
104.72,104.72,92.06544012935233,133.85120821349068,56.07339623422779
104.726,104.726,92.06750359671564,133.90511677505134,56.077454954405006
104.733,104.733,92.0758091160787,133.95788062722784,56.083553053910265
104.74,104.74,92.0962491040725,134.0058666126423,56.09791077078933
104.747,104.747,92.12895354379748,134.04632654482714,56.11739717090692
104.753,104.753,92.17164639693691,134.07703860171992,56.13822011208605
104.76,104.76,92.21904577270293,134.094658696119,56.156881344323224
104.767,104.767,92.26461224877804,134.09584905330843,56.17125446855092
104.774,104.774,92.30315312779246,134.12125818888887,56.18119779732847
104.78,104.78,92.3301005027923,134.17002838069666,56.18839278652739
104.787,104.787,92.33950674694779,134.23176175850696,56.19574703605352
104.794,104.794,92.35326671140885,134.28932606135166,56.20664217185808
104.801,104.801,92.39144905223829,134.32517384497046,56.22387366033816
104.807,104.807,92.44907675746288,134.32712074673128,56.24845181448341
104.814,104.814,92.5162815401427,134.36292061236958,56.27883392367745
104.821,104.821,92.58117315536968,134.43215850057246,56.31096365533034
104.828,104.828,92.63275848423726,134.52458937432218,56.33922882580392
104.834,104.834,92.66302777246399,134.62681500794707,56.358061439346635
104.841,104.841,92.66771439885397,134.72492673428454,56.36346351055074
104.848,104.848,92.68956854500833,134.80677747774735,56.373095499955305
104.855,104.855,92.73655840934714,134.86363346567626,56.39698037785725
104.861,104.861,92.80567390289376,134.89109070847965,56.432548130583314
104.868,104.868,92.89267412757157,134.89287227165215,56.47626882741698
104.875,104.875,92.99228470109908,134.9195506437309,56.52441184096252
104.882,104.882,93.09848295862008,134.9635647572391,56.57355755524776
104.888,104.888,93.20506115235086,135.01563633684498,56.62086487585517
104.895,104.895,93.30643869106689,135.06661928058634,56.66421869853653
104.902,104.902,93.3984425514435,135.10926343453897,56.702365616342696
104.909,104.909,93.47875236126184,135.1393871860664,56.735055588271244
104.915,104.915,93.5468541158219,135.1561751240244,56.76312644550681
104.922,104.922,93.60352479072554,135.16163990232235,56.78843317974467
104.929,104.929,93.65005534907881,135.16377624409677,56.81355067781341
104.936,104.936,93.68748789057351,135.16942712486136,56.841273640261626
104.942,104.942,93.71603166514146,135.17537735950225,56.874017080412244
104.949,104.949,93.73474033965375,135.1801899476919,56.91321626705041
104.956,104.956,93.74157815589807,135.18465931350514,56.958828451034705
104.963,104.963,93.74917356268557,135.19170963627823,57.009084053486845
104.969,104.969,93.77328801091898,135.20564763290548,57.060577827304286
104.976,104.976,93.81437674003529,135.23084370089782,57.10864207913842
104.983,104.983,93.87044633752872,135.270250363488,57.1479347005258
104.99,104.99,93.93699504432746,135.3243524581133,57.17327043397713
104.996,104.996,94.00774355482899,135.39092200157103,57.18064538895131
105.003,105.003,94.07580031297717,135.4655065708016,57.193091308919975
105.01,105.01,94.13483791701941,135.54234096625626,57.22450133615543
105.017,105.017,94.18000917234552,135.61541477260877,57.27133002059374
105.023,105.023,94.20844898005627,135.67947463641323,57.32796028467094
105.03,105.03,94.21931766405672,135.7307472934863,57.3876966480746
105.037,105.037,94.22512483934595,135.7672553303122,57.443862747181
105.044,105.044,94.2454300843321,135.7887246335094,57.49076929827015
105.05,105.05,94.27731828785272,135.7961971834595,57.52438627960583
105.057,105.057,94.31769210721754,135.80084932323373,57.54263844486268
105.064,105.064,94.36364522026906,135.81532706315184,57.54530889808334
105.071,105.071,94.4125584648442,135.83716220244915,57.55700122655344
105.077,105.077,94.46203386646908,135.86386263124513,57.580967465677794
105.084,105.084,94.50980817309296,135.89295741706965,57.61476880420267
105.091,105.091,94.55352948385499,135.92195076800408,57.65605030013081
105.098,105.098,94.5902768385832,135.94852729771776,57.70288546092152
105.104,105.104,94.61668733640624,135.9714227620157,57.75387423872439
105.111,105.111,94.63026865747553,135.99101481512136,57.807890726261355
105.118,105.118,94.63042502788166,136.00811544513107,57.863666469017936
105.125,105.125,94.64450408059831,136.02193199737135,57.919493189603045
105.131,105.131,94.67234916665298,136.02958339441403,57.973191917812535
105.138,105.138,94.71247855526836,136.03177812677808,58.02236693598054
105.145,105.145,94.76134431215128,136.04665371610864,58.06488680853224
105.152,105.152,94.81374026350093,136.07502146373773,58.099374052826896
105.158,105.158,94.86381270420945,136.11523210114248,58.12538316581623
105.165,105.165,94.90609590528705,136.16365158558614,58.143155030602365
105.172,105.172,94.93642354978924,136.2157441513896,58.153118662341264
105.179,105.179,94.95250618263168,136.26708128567455,58.155402547648066
105.185,105.185,94.95394800813949,136.31394807830284,58.16120602334001
105.192,105.192,94.96604828436088,136.3536453394489,58.175883078869404
105.199,105.199,94.98963063547389,136.3845917066033,58.200103138502946
105.206,105.206,95.02214437517233,136.40629839164862,58.233784683608604
105.212,105.212,95.06080668658655,136.41929073338423,58.27554011527428
105.219,105.219,95.10271223815631,136.4249250911839,58.32238261837268
105.226,105.226,95.14501465816892,136.42502377961154,58.36981791647715
105.233,105.233,95.18520092199992,136.42862290978982,58.41232434959979
105.239,105.239,95.22131687501532,136.43444147196965,58.44414910827035
105.246,105.246,95.25209853947203,136.44160641497677,58.46032329015252
105.253,105.253,95.27700401147945,136.44992861421667,58.462997546531966
105.26,105.26,95.29609979771188,136.45975543753408,58.48533176973504
105.266,105.266,95.30980014096802,136.47163741359483,58.525672705738096
105.273,105.273,95.31853758123763,136.48593944877945,58.58029116721324
105.28,105.28,95.32249897182126,136.50252893596303,58.644063073676534
105.287,105.287,95.32343807853343,136.52064080814924,58.71125848417289
105.293,105.293,95.32956582091265,136.53894975697656,58.7763152844498
105.3,105.3,95.34111239828744,136.55579387741648,58.83452303747493
105.307,105.307,95.35809010735834,136.56946081035466,58.882520937824665
105.314,105.314,95.38022160825415,136.5784619064696,58.91851440635829
105.32,105.32,95.40694962086408,136.5817468674958,58.94220360970152
105.327,105.327,95.43749275679463,136.58465610861182,58.95451665160693
105.334,105.334,95.47087659138539,136.59362176449562,58.957246658721466
105.341,105.341,95.50595738412822,136.60794191060316,58.961857517619386
105.347,105.347,95.54153050307742,136.62648354637759,58.97153756764921
105.354,105.354,95.57650526447956,136.64787121065135,58.9843189776596
105.361,105.361,95.61000893598681,136.67073437744713,58.99874341876725
105.368,105.368,95.64137697637388,136.69401284898785,59.0139732676288
105.374,105.374,95.67026502492274,136.71722323196533,59.02984977711884
105.381,105.381,95.69699487660706,136.74047713351527,59.04691919973403
105.388,105.388,95.72251285276026,136.76416091996725,59.066423775855974
105.395,105.395,95.74782577022563,136.7886841302794,59.09024604731977
105.401,105.401,95.77415646273735,136.8147459199248,59.12076469284191
105.408,105.408,95.80392314744316,136.8437321874401,59.16049373655636
105.415,105.415,95.84089405698403,136.8776369772118,59.21144523748211
105.422,105.422,95.88911193052722,136.91869553275578,59.27441889087087
105.428,105.428,95.95166643715018,136.96914165947814,59.34852353794564
105.435,105.435,96.02974715297518,137.03101603039568,59.431152910772965
105.442,105.442,96.12169110166147,137.10585285027489,59.51854546787566
105.449,105.449,96.22193645953203,137.19438520386362,59.60680377318971
105.455,105.455,96.31986715967632,137.29660492487173,59.692956268976204
105.462,105.462,96.39884035749459,137.41235011470937,59.77555283163169
105.469,105.469,96.4363395711988,137.5420481316907,59.854457966786654
105.476,105.476,96.46702589917547,137.6869265801145,59.93010863171722
105.482,105.482,96.5936252831808,137.84851703867665,60.00287232616189
105.489,105.489,96.83922648392034,138.02789547717472,60.0725517103894
105.496,105.496,97.21414129897308,138.22500557390256,60.13769353045516
105.503,105.503,97.70873319844091,138.43802111725802,60.19499318699243
105.509,105.509,98.29173746795789,138.66260555766056,60.239479479333134
105.516,105.516,98.91555725116538,138.89121614710243,60.265654048767374
105.523,105.523,99.52613229217012,139.11296333769306,60.26910980270117
105.53,105.53,100.07334146715674,139.31440678910477,60.290307857163974
105.536,105.536,100.51873234504541,139.48114064286392,60.33499917164025
105.543,105.543,100.83922405570932,139.59970441518368,60.3991651045673
105.55,105.55,101.02710029963048,139.65935178958114,60.47678127864893
105.557,105.557,101.08742761139567,139.665453864076,60.56091282319018
105.563,105.563,101.14076752395827,139.73990326503068,60.64475407219508
105.57,105.57,101.28936696937524,139.8816271715185,60.72242942716244
105.577,105.577,101.51405088987848,140.08706852388255,60.789470983692325
105.584,105.584,101.7976295732618,140.3515975650505,60.843012306735716
105.59,105.59,102.12654416464694,140.67075273667433,60.8817892204957
105.597,105.597,102.49157536280391,141.04107655690606,60.90594076850161
105.604,105.604,102.88784853550219,141.4604562650477,60.91651953715947
105.611,105.611,103.31424042074818,141.9279039003219,60.91827805536263
105.617,105.617,103.77224961025017,142.4428219888883,60.93160528564579
105.624,105.624,104.26448826028648,143.00401790814607,60.95637675762407
105.631,105.631,104.79300485795432,143.60878534586956,60.992663870038776
105.638,105.638,105.35775075198036,144.2521947128625,61.03986040865994
105.644,105.644,105.95561046848762,144.92658960370014,61.09584111617489
105.651,105.651,106.5801338890666,145.62134274045675,61.15658028301326
105.658,105.658,107.22178749236375,146.32295364194988,61.216226499172336
105.665,105.665,107.86868325461174,147.01544088948324,61.26724055045036
105.671,105.671,108.50779799037458,147.68100324798897,61.30051573166859
105.678,105.678,109.12634777106332,148.301134067991,61.30600530279196
105.685,105.685,109.71283007150906,148.8582633240858,61.33771550604652
105.692,105.692,110.25757240076597,149.3375357255619,61.41325661585552
105.698,105.698,110.75075834930222,149.72840439038436,61.53430728023644
105.705,105.705,111.17244139987095,150.02568260305915,61.69538512494337
105.712,105.712,111.46727740809675,150.2275261594534,61.88069968714184
105.719,105.719,111.5096558230099,150.326097185859,62.06036035589012
105.725,105.725,111.91348465909397,150.35796602572896,62.19296911342749
105.732,105.732,112.94035741347786,150.56593400888613,62.24042721710373
105.739,105.739,114.63110159867742,150.98617560661273,62.29567873519189
105.746,105.746,116.84441508328004,151.6089417050723,62.44490634426576
105.752,105.752,119.31404851840739,152.36669968059655,62.65970493691176
105.759,105.759,121.74357449584902,153.1560750640647,62.90344158148843
105.766,105.766,123.87496960960469,153.8741478858574,63.141095688207315
105.773,105.773,125.52334490261556,154.44612331006186,63.34507077918386
105.779,105.779,126.59211138251142,154.83678237678035,63.49747319332533
105.786,105.786,127.07241402275459,155.04929025469005,63.58986342813074
105.793,105.793,127.1165080598462,155.11612730984027,63.621361329866716
105.8,105.8,127.57062863169335,155.14579348699303,63.64628007041025
105.806,105.806,128.29479529281846,155.21858728627464,63.719193661191575
105.813,105.813,129.14697295613112,155.28702940624459,63.82860163868986
105.82,105.82,130.0027423155684,155.31611553479613,63.96125680547519
105.827,105.827,130.7686186735426,155.34617711671342,64.10432568067094
105.833,105.833,131.3879224486393,155.4404943157458,64.24774486591785
105.84,105.84,131.83988342455683,155.59214688634907,64.3857905074373
105.847,105.847,132.1337449999058,155.78583682888228,64.51729763337859
105.854,105.854,132.29986149175923,156.0017664105496,64.64463950266472
105.86,105.86,132.37967754652945,156.21927608694162,64.7719761157222
105.867,105.867,132.41635242368613,156.41987155061653,64.90336929388417
105.874,105.874,132.4474580264811,156.5894280986249,65.04126664615652
105.881,105.881,132.5005150678849,156.71962447517544,65.185639908656
105.887,105.887,132.59141074842134,156.80864668127649,65.33380848403235
105.894,105.894,132.72522743839352,156.8610153050219,65.48082911697735
105.901,105.901,132.89918955814989,156.88724777372596,65.6205865737005
105.908,105.908,133.10815992920567,156.90534980767495,65.74791502991818
105.914,105.914,133.35165791238055,156.94440156905452,65.86107413364549
105.921,105.921,133.638270585754,157.04644209854976,65.96264644992115
105.928,105.928,133.98407865165444,157.26080636487524,66.0574798153733
105.935,105.935,134.40506006354227,157.62843046065808,66.14835168393937
105.941,105.941,134.9061510615192,158.16318751288603,66.23187956859012
105.948,105.948,135.47320512849362,158.8427936697698,66.29742281402358
105.955,105.955,136.07362044284213,159.61397898363714,66.32980825895862
105.962,105.962,136.6646710081368,160.40612646571458,66.34530066426308
105.968,105.968,137.20411626368704,161.1460499914699,66.41799090388511
105.975,105.975,137.6586907931068,161.77023912103195,66.54848993702815
105.982,105.982,138.00874523261626,162.23356942861685,66.72781852399937
105.989,105.989,138.2494050863053,162.51426346189382,66.9390993516687
105.995,105.995,138.38926660447882,162.61489497397534,67.16128864008822
106.002,106.002,138.44728035175973,162.670239439588,67.37372781325604
106.009,106.009,138.4484435780286,162.84173165303832,67.56001138526959
106.016,106.016,138.4776575717322,163.08108301583303,67.71017809231087
106.022,106.022,138.51318129987226,163.33906010117147,67.82112554880722
106.029,106.029,138.53588655853355,163.5721990739994,67.89573125379214
106.036,106.036,138.53912751047056,163.74780126400663,67.94124357933967
106.043,106.043,138.57555259224637,163.8468504803168,67.9672971409007
106.049,106.049,138.6474222328627,163.86503555752375,67.98381062426292
106.056,106.056,138.7531445244451,163.91835574373843,67.99905411649995
106.063,106.063,138.8879884339635,164.0237109871319,68.01819828591402
106.07,106.07,139.04463851683602,164.15710987779426,68.04269773608783
106.076,106.076,139.21435091972432,164.29582905423877,68.07044843892987
106.083,106.083,139.38876548176137,164.4225282425218,68.09611668172985
106.09,106.09,139.56167486388088,164.52694137427034,68.11140229095913
106.097,106.097,139.7294852734319,164.60566658070172,68.11701098123785
106.103,106.103,139.88947080511824,164.66143462651203,68.15429111523991
106.11,106.11,140.03695053459026,164.70256333538825,68.23118998185267
106.117,106.117,140.16291296018835,164.7415969108032,68.34965828765885
106.124,106.124,140.25191691435336,164.79217057717418,68.50379724432001
106.13,106.13,140.28124378145625,164.8650442027798,68.68026617640719
106.137,106.137,140.33776036481007,164.9651354851894,68.8612005158743
106.144,106.144,140.50042937580366,165.09048334120496,69.02866990696357
106.151,106.151,140.77378070724558,165.23289943969644,69.16864451514144
106.157,106.157,141.1421373416567,165.37946738965977,69.27293617905303
106.164,106.164,141.57264249946175,165.5142357619297,69.33908428021869
106.171,106.171,142.02314977284033,165.61996492162712,69.3690856898956
106.178,106.178,142.45076670048508,165.67987277600463,69.37024683391134
106.184,106.184,142.81797561386807,165.68053646941314,69.39568295907249
106.191,106.191,143.09558228335877,165.75331386292257,69.43734180218098
106.198,106.198,143.26337257010005,165.9060008484947,69.4868776552945
106.205,106.205,143.30936575419602,166.1427577486514,69.53673759706912
106.211,106.211,143.39071097730212,166.46462264391798,69.58100201217778
106.218,106.218,143.6007420554068,166.8702213702097,69.6158672704603
106.225,106.225,143.9382138524493,167.35662278612017,69.6401309668375
106.232,106.232,144.39959767781122,167.92026070936305,69.65566575210623
106.238,106.238,144.9785618337832,168.5576412191767,69.66731666713363
106.245,106.245,145.66414639697814,169.26579703095234,69.6820613595009
106.252,106.252,146.43422538075185,170.04292879794937,69.7085457213212
106.259,106.259,147.24393437562244,170.8884074365437,69.75811937838178
106.265,106.265,148.017148317857,171.79930809765335,69.84612746032113
106.272,106.272,148.6475557731432,172.76247686548476,69.99112408159539
106.279,106.279,149.00601754891792,173.74551742287548,70.21261835467354
106.286,106.286,149.0564007105749,174.69159856257124,70.52791347135839
106.292,106.292,149.62137547670554,175.52454949766357,70.94445779672958
106.299,106.299,150.7169983882236,176.17007352408754,71.45015547623188
106.306,106.306,152.2395305775655,176.58381650295982,72.01217890595062
106.313,106.313,153.99535413004625,176.76421617691958,72.58560839991468
106.319,106.319,155.76097749174673,176.7851173662004,73.12306250414586
106.326,106.326,157.33328355668309,176.95915830816296,73.58063306559153
106.333,106.333,158.5608119181461,177.23596258006708,73.9213817807949
106.34,106.34,159.35861555329896,177.57126770870488,74.11819160046045
106.346,106.346,159.70886461083327,177.93066123293733,74.15625339815676
106.353,106.353,159.76627361722703,178.2898798357674,74.27789244449954
106.36,106.36,160.1492039441439,178.63319152949165,74.54607945450596
106.367,106.367,160.75193462052198,178.9512336712845,74.93484392167247
106.373,106.373,161.46374717797642,179.23906961485798,75.40831791490608
106.38,106.38,162.18459421375346,179.49482871263248,75.92485767171468
106.387,106.387,162.83622592830656,179.7191825331392,76.44174802126444
106.394,106.394,163.36813914073363,179.91539139220248,76.91998286997715
106.4,106.4,163.75837718658994,180.08918340772306,77.32856045641135
106.407,106.407,164.01004375388723,180.2480934558455,77.64770624620921
106.414,106.414,164.14506157924592,180.40053951281482,77.87053642020174
106.421,106.421,164.19679478135987,180.5550597661367,78.00283156972667
106.427,106.427,164.2028617023126,180.7198430300077,78.06087592094876
106.434,106.434,164.20645240010313,180.90301929516517,78.06793416666697
106.441,106.441,164.22470558344645,181.11492655279005,78.08529418680553
106.448,106.448,164.29246638623232,181.37182677134754,78.10051636982841
106.454,106.454,164.43453547720276,181.697489813258,78.11012101760345
106.461,106.461,164.6711224541173,182.11948882942218,78.15871882457098
106.468,106.468,165.01492107908354,182.65986930005548,78.24832052307403
106.475,106.475,165.4676010441605,183.32300579602796,78.36809448402913
106.481,106.481,166.01450865736987,184.08731821322445,78.49676528143247
106.488,106.488,166.62128312220088,184.90683096010795,78.60735941170842
106.495,106.495,167.23820348692988,185.7211200991075,78.6735582896339
106.502,106.502,167.81154979879187,186.46741549592193,78.67620098411152
106.508,106.508,168.29567194821763,187.0910987593648,78.74441737319556
106.515,106.515,168.66090246188534,187.55410205876098,78.87718503590382
106.522,106.522,168.89644095411307,187.8407177711699,79.0560062355571
106.529,106.529,169.00927718160077,187.95921504790238,79.25441588385169
106.535,106.535,169.0203552384895,187.97999306133227,79.44375317590286
106.542,106.542,169.08149505500924,188.09764078125662,79.59881045828797
106.549,106.549,169.18232279749088,188.26446659942408,79.70207995532516
106.556,106.556,169.2922563141015,188.43513376635144,79.74588387708026
106.562,106.562,169.38630018330878,188.57230653258242,79.7594520632554
106.569,106.569,169.44696172654375,188.6497508340085,79.82032458680771
106.576,106.576,169.46449175803141,188.65316930547377,79.91333100353735
106.583,106.583,169.4930666378556,188.72692709907534,80.02142545786056
106.589,106.589,169.5656645156145,188.8715594996628,80.12861045476606
106.596,106.596,169.67735925676251,189.07336555676144,80.22213969163884
106.603,106.603,169.82211644914014,189.313325284962,80.2939243230768
106.61,106.61,169.99225943796765,189.56932728205697,80.3410936998963
106.616,106.616,170.17604523940832,189.81923702736626,80.36555317014319
106.623,106.623,170.3561486622304,190.04424466446034,80.37264840834963
106.63,106.63,170.5091810812069,190.23030006358312,80.3761008781771
106.637,106.637,170.60518421474924,190.36758181903824,80.38387849112205
106.643,106.643,170.6119551469235,190.45027962064643,80.39111267963135
106.65,106.65,170.71453541785058,190.47658165386406,80.39303579714229
106.657,106.657,170.91727426721928,190.50637667691836,80.40264018846648
106.664,106.664,171.17633456831425,190.5930910390829,80.43120432696632
106.67,106.67,171.42477091650295,190.7403060868048,80.4855065106676
106.677,106.677,171.59152846120418,190.95291240169624,80.56966919081398
106.684,106.684,171.61655093194105,191.2339656423551,80.68389869863161
106.691,106.691,171.77422936127357,191.58218462345334,80.82403688703626
106.697,106.697,172.13274571042675,191.99110053390197,80.981943327346
106.704,106.704,172.68636752953572,192.44946548647437,81.14671491901086
106.711,106.711,173.4078265854004,192.94232963569587,81.30646349112685
106.718,106.718,174.2540976060483,193.45241910208898,81.45017629443018
106.724,106.724,175.17393523928376,193.9614286684862,81.56921832492081
106.731,106.731,176.11506453497077,194.45088900546637,81.65823452006877
106.738,106.738,177.02964878751416,194.90245069378065,81.71538319395934
106.745,106.745,177.87682519878072,195.2966269999642,81.74282259847766
106.751,106.751,178.61732411700154,195.60627838962205,81.74700864267969
106.758,106.758,179.19391541336995,195.78442594489377,81.76040778032558
106.765,106.765,179.50844153710233,195.80744445447138,81.79628528176802
106.772,106.772,179.59326284736284,196.10063349461302,81.8731620038168
106.778,106.778,180.21531831334636,196.6934468536488,82.01494865330768
106.785,106.785,181.45600462305657,197.54968842321148,82.23823433570993
106.792,106.792,183.29160648254756,198.56801180713185,82.54296523993355
106.799,106.799,185.57527877058368,199.60374631515177,82.9110489756333
106.805,106.805,188.0619499993427,200.50068668826134,83.31190139133325
106.812,106.812,190.46766080352245,201.12263820287015,83.71072693953835
106.819,106.819,192.53653845929773,201.3777407367263,84.07636354903742
106.826,106.826,194.09067903823512,201.5231680032235,84.38665601434624
106.832,106.832,195.05292055522227,202.04209521538723,84.63047318771555
106.839,106.839,195.4444423897028,202.85554861586064,84.80702004084358
106.846,106.846,195.52488964460775,203.8511001666563,84.92351802795234
106.853,106.853,195.9324142840822,204.90684806172456,84.99203898148458
106.859,106.859,196.51007350982073,205.9141090235866,85.02615149256519
106.866,106.866,197.11804820431112,206.79179044405643,85.03772677755997
106.873,106.873,197.6524925851638,207.4901616892923,85.04090313488905
106.88,106.88,198.05253884789627,207.98800090485787,85.0557940641858
106.886,106.886,198.29723220884205,208.2881171956337,85.08325944306866
106.893,106.893,198.39522271758582,208.41260589088947,85.12671172877903
106.9,106.9,198.41950706355814,208.42827999763202,85.190838456697
106.907,106.907,198.53867068619903,208.54226462491866,85.28036571326831
106.913,106.913,198.73098915010254,208.71281333217058,85.3986113895237
106.92,106.92,198.98413407240406,208.9026608396743,85.54570112156759
106.927,106.927,199.29484593688116,209.08075459456933,85.71675308887248
106.934,106.934,199.66630420314408,209.22219156880513,85.90072898969292
106.94,106.94,200.10500171369566,209.30767975477997,86.08064701106841
106.947,106.947,200.61822506968468,209.32329529564942,86.23546596247398
106.954,106.954,201.21265560196952,209.38585348537046,86.34345674986346
106.961,106.961,201.8941749812183,209.52858799714824,86.3864179593439
106.967,106.967,202.66821861935475,209.74667307045527,86.41921566091324
106.974,106.974,203.53945943497806,210.0289799644165,86.52867720207048
106.981,106.981,204.5100281275968,210.35997954387608,86.7059523235929
106.988,106.988,205.57658192226904,210.72235420293146,86.9347714943883
106.994,106.994,206.7271948691421,211.09922893306265,87.19507744659657
107.001,107.001,207.93894660876018,211.47523366292322,87.46669302761994
107.008,107.008,209.17688094703968,211.83640140071458,87.73202357133464
107.015,107.015,210.394962142313,212.16962815833028,87.97742473247409
107.021,107.021,211.53949815881325,212.4624804326082,88.19345880438433
107.028,107.028,212.55496485177636,212.70369358449886,88.37449784011702
107.035,107.035,213.39132178063505,212.88424475644464,88.51805935263258
107.042,107.042,214.01123632538062,212.9985158860048,88.62407116967992
107.048,107.048,214.39553705166801,213.04491595422155,88.6941276997049
107.055,107.055,214.54562074928617,213.06418533888674,88.73075368608463
107.062,107.062,214.6086674099118,213.1441021355528,88.73667343150137
107.069,107.069,214.84755209969015,213.27800929786,88.75914548783557
107.075,107.075,215.215056960693,213.45802096200075,88.80844790119625
107.082,107.082,215.66000652946678,213.67480437703324,88.88382433268583
107.089,107.089,216.12428416275958,213.91938644129164,88.98453964338731
107.096,107.096,216.53729726820436,214.18815475654327,89.1080751359769
107.102,107.102,216.83418660289618,214.48640388578488,89.2494172089797
107.109,107.109,217.0003646692134,214.82400243797366,89.40284918476046
107.116,107.116,217.10244188999542,215.2037533202439,89.56361491220684
107.123,107.123,217.27092189157605,215.6120907593357,89.72731384129571
107.129,107.129,217.64552998964567,216.02088788308606,89.88933437283058
107.136,107.136,218.3215876689261,216.3980776714882,90.04674067415469
107.143,107.143,219.3248434357689,216.71783400026314,90.20071154216237
107.15,107.15,220.61643931295188,216.96475689256803,90.35602539390162
107.156,107.156,222.11418271703005,217.13298595183494,90.51752266617939
107.163,107.163,223.71604440714168,217.2236127526296,90.68654709272408
107.17,107.17,225.3189672430566,217.24250985430015,90.85963498823543
107.177,107.177,226.83204016560862,217.28625562526204,91.0298032573281
107.183,107.183,228.18518507611844,217.3819093252736,91.18936636871892
107.19,107.19,229.3342963295469,217.51903392415153,91.33255781769286
107.197,107.197,230.26276433796593,217.68963445963124,91.45697814960839
107.204,107.204,230.97913866944484,217.88991166921795,91.56380477185984
107.21,107.21,231.51153241620503,218.12098644134346,91.65679375663068
107.217,107.217,231.8994247886462,218.38806392376372,91.74039886898173
107.224,107.224,232.1838811726685,218.69793546949953,91.81799860331587
107.231,107.231,232.39859990034535,219.0554959124959,91.89104180503124
107.237,107.237,232.56421317563365,219.46050168564278,91.95909538393998
107.244,107.244,232.68720334289324,219.90589466073553,92.0204792954942
107.251,107.251,232.76359791485513,220.37842615390022,92.07322546948639
107.258,107.258,232.78581013629002,220.86120935132433,92.11602084459763
107.264,107.264,232.8217271703415,221.33715237288826,92.14879993032527
107.271,107.271,232.91063794816174,221.79219758868757,92.17282587755793
107.278,107.278,233.03588514407727,222.2175375381771,92.1903306262919
107.285,107.285,233.17023230956656,222.6104292259789,92.20395283175041
107.291,107.291,233.27963495614583,222.97382255215916,92.21622719804279
107.298,107.298,233.3284161898363,223.31535054305445,92.22930982422169
107.305,107.305,233.37243200089674,223.64605290982868,92.24496856320056
107.312,107.312,233.5337667184582,223.97886855186468,92.26459742611006
107.318,107.318,233.82671963022102,224.3268396311661,92.28900381751555
107.325,107.325,234.25467335580004,224.70115536921756,92.31811705414088
107.332,107.332,234.81103420243713,225.10948361438037,92.35099796349247
107.339,107.339,235.48102733577784,225.55510612546414,92.38631228584443
107.345,107.345,236.24338459858365,226.0369162641629,92.42304810257409
107.352,107.352,237.07146645225222,226.54977741258745,92.46105994001498
107.359,107.359,237.93422399207546,227.084984621993,92.50115653523183
107.366,107.366,238.79762933676577,227.63134299832194,92.54454485682112
107.372,107.372,239.6266907224216,228.17672394158396,92.59172077033999
107.379,107.379,240.3876816298496,228.70882934897276,92.64169125791337
107.386,107.386,241.0502643880087,229.2150337322432,92.69236892877693
107.393,107.393,241.58952567959162,229.68249934020423,92.74171763934042
107.399,107.399,241.98793254118917,230.0989662670032,92.78863431420282
107.406,107.406,242.23708023103097,230.4536949137787,92.83317268655234
107.413,107.413,242.3389122729292,230.73803866157274,92.87633684876774
107.42,107.42,242.37256238658938,230.94239072848734,92.91906816212558
107.426,107.426,242.53166999950716,231.0458200941464,92.95678438098449
107.433,107.433,242.84287658378193,231.0845626304129,92.96706904822759
107.44,107.44,243.40127390310784,231.32020959389436,93.03143265371823
107.447,107.447,244.34817898413743,231.7994167071164,93.22720437615156
107.453,107.453,245.79947150689856,232.53787684371883,93.59054548148136
107.46,107.46,247.77920644709272,233.50712001603222,94.11570522866033
107.467,107.467,250.19166088181606,234.6347431014121,94.75314175191922
107.474,107.474,252.83302651175123,235.81640374343593,95.4233791542527
107.48,107.48,255.43315652225206,236.93584100711757,96.039030551864
107.487,107.487,257.7125212326587,237.88723592435795,96.52601110912718
107.494,107.494,259.43909793139915,238.594411995997,96.83723337517253
107.501,107.501,260.47240586817253,239.0238118581519,96.9570370759717
107.507,107.507,260.784217166355,239.18876695842658,97.01643213101937
107.514,107.514,261.11558443056737,239.23401557322902,97.22358560612665
107.521,107.521,261.93071095182955,239.40888017422907,97.537558841303
107.528,107.528,263.0244678545661,239.62501905291106,97.91542964623298
107.534,107.534,264.1839681145237,239.80374174796916,98.31686575816933
107.541,107.541,265.2234470920092,239.88851495339978,98.70667481197223
107.548,107.548,266.0109141355111,239.92589151441177,99.05610293170359
107.555,107.555,266.4827406197338,240.08525965767495,99.34325133609612
107.561,107.561,266.64488013375734,240.3432588739576,99.55321224189134
107.568,107.568,266.72787811059834,240.66189965450525,99.67851883321433
107.575,107.575,266.9530604275926,240.99793897409214,99.71993012117073
107.582,107.582,267.2038524774223,241.31072535693374,99.75280316367164
107.588,107.588,267.37398122019323,241.56757645570633,99.84174547735584
107.595,107.595,267.386052013654,241.7467331940843,99.96159947299886
107.602,107.602,267.5697731033124,241.8381910785075,100.0834536652284
107.609,107.609,267.9452583190737,241.8430062318602,100.17902351297272
107.615,107.615,268.4728767631691,241.91421993943152,100.2253253261877
107.622,107.622,269.08964605898655,242.04340765346444,100.24217376739713
107.629,107.629,269.7241929461154,242.2081395121517,100.32487509261848
107.636,107.636,270.31107329842183,242.38570054374162,100.46497655752329
107.642,107.642,270.80187350405606,242.5574388013788,100.64492799498349
107.649,107.649,271.1716221201837,242.7120627205756,100.84164308397598
107.656,107.656,271.4201572399803,242.84686694210976,101.03069515098663
107.663,107.663,271.56889216924566,242.96672344814377,101.19019430536552
107.669,107.669,271.65408565478805,243.08146621026236,101.30360818558431
107.676,107.676,271.718358179967,243.20266541800837,101.36118797137593
107.683,107.683,271.80236985709234,243.34072424948127,101.3622893906312
107.69,107.69,271.93811992826596,243.5028487933911,101.41880461673624
107.696,107.696,272.14473158177987,243.691976350188,101.522583330027
107.703,107.703,272.42709209915085,243.90649110920964,101.6619410447542
107.71,107.71,272.7771464241441,244.1405068426848,101.82296121209158
107.717,107.717,273.17717485723256,244.38447544610406,101.99076017486385
107.723,107.723,273.6042721186953,244.6259172271689,102.15082440720728
107.73,107.73,274.03511156838937,244.8501922298159,102.29042923926828
107.737,107.737,274.4497914482208,245.04132645816793,102.39990275953213
107.744,107.744,274.8338482168256,245.18284483302293,102.4733451700706
107.75,107.75,275.1784898629105,245.25839629242228,102.50858107204841
107.757,107.757,275.47971592687776,245.26476886299034,102.51067155444969
107.764,107.764,275.7368310644541,245.3686132229129,102.54706452615335
107.771,107.771,275.9508799899442,245.58845446967223,102.61650907610326
107.777,107.777,276.1097748434732,245.96245384565756,102.72644054633389
107.784,107.784,276.1421802184075,246.57210937124177,102.88923068896855
107.791,107.791,276.40298727887006,247.5316061988742,103.10501799507034
107.798,107.798,277.17973248368276,248.9226418795141,103.35157880680842
107.804,107.804,278.65595013718536,250.72288811353042,103.58894090255049
107.811,107.811,280.88727957329996,252.78571286510268,103.77094697454761
107.818,107.818,283.75044335526394,254.87748410852592,103.8593216238066
107.825,107.825,286.95086867899937,256.7424900690545,103.88396163673069
107.831,107.831,290.0922789389861,258.1665068245415,104.01768159558807
107.838,107.838,292.7763492697646,259.02451545672596,104.23410020797516
107.845,107.845,294.69189956056294,259.3041459513804,104.49027370185124
107.852,107.852,295.669159009763,259.5108265208639,104.73694448004218
107.858,107.858,295.694088362028,260.0442396525489,104.92978603520682
107.865,107.865,296.49852156211176,260.72495250651883,105.03781990810832
107.872,107.872,297.9134733862151,261.3927847700192,105.04721487601577
107.879,107.879,299.67604877004476,261.92990745186114,105.13355315511842
107.885,107.885,301.529906437367,262.2695725579947,105.29913674247976
107.892,107.892,303.2648715997554,262.39420271375513,105.51840691274272
107.899,107.899,304.7397410573493,262.46222963843525,105.76169058780181
107.906,107.906,305.88718015263294,262.67403217645403,105.99986651877367
107.912,107.912,306.704219989661,262.9687463671171,106.20810570363179
107.919,107.919,307.23460568289187,263.28636338627007,106.36838798020811
107.926,107.926,307.5491957571473,263.57720642506615,106.47083333410991
107.933,107.933,307.72861762378477,263.80742296471243,106.51400524248913
107.939,107.939,307.84994738777533,263.96070078376505,106.5237439133892
107.946,107.946,307.97756927155314,264.0369439860328,106.57385054269079
107.953,107.953,308.15792333570494,264.0487391805408,106.64814313483397
107.96,107.96,308.4178113895122,264.0810368524754,106.72992387746919
107.966,107.966,308.76563650684045,264.13458255911644,106.80507479940312
107.973,107.973,309.1946181046086,264.18858963649944,106.86446236610098
107.98,107.98,309.6870022240356,264.2273908772495,106.90516392916473
107.987,107.987,310.2185000687602,264.24183519615576,106.9302768720225
107.993,107.993,310.76244507375065,264.2544114100047,106.94738576721609
108.0,108.0,311.2933203210002,264.2912462048821,106.96613214829179
108.007,108.007,311.78934769694104,264.34581058493603,106.99554064982611
108.014,108.014,312.2340202212798,264.40961831212985,107.04173389921995
108.02,108.02,312.6168638737854,264.47383693269165,107.10651950383178
108.027,108.027,312.93384081559276,264.53054758885787,107.18706815064363
108.034,108.034,313.18749203961585,264.5736677702064,107.27657983769448
108.041,108.041,313.3866361498241,264.5995874214094,107.36560935090681
108.047,108.047,313.545490904403,264.60751224027194,107.44364445833422
108.054,108.054,313.68234570594933,264.61555757135443,107.50058377428617
108.061,108.061,313.81808620360835,264.6350783966014,107.5279045893506
108.068,108.068,313.9747948372525,264.6597598343201,107.53633078815864
108.074,108.074,314.1745177403246,264.68232872881697,107.5836294962091
108.081,108.081,314.43818103730086,264.69553672307245,107.66928319949791
108.088,108.088,314.78446725161075,264.6978519222095,107.78842636650606
108.095,108.095,315.22844074093086,264.7196649346514,107.93142038965937
108.101,108.101,315.7800707030508,264.7617831848193,108.08420145098219
108.108,108.108,316.44339452942853,264.8212067353018,108.22959363939968
108.115,108.115,317.2170859812598,264.89085875669196,108.34935760680281
108.122,108.122,318.09594832082576,264.9594108151631,108.42652348898115
108.128,108.128,319.0713139609885,265.0107331873391,108.44730247618035
108.135,108.135,320.1195976654346,265.0219692550583,108.4940209028534
108.142,108.142,321.1624548396983,265.0816200124534,108.62014675225147
108.149,108.149,322.02278396454005,265.2416831931751,108.83850831639248
108.155,108.155,322.4457756221681,265.5080646407379,109.15346859171396
108.162,108.162,322.6897324665328,265.8469511811352,109.54658416707403
108.169,108.169,323.6934112604133,266.19417431492496,109.96899071494737
108.176,108.176,325.3682045681717,266.48320107062,110.35010495002605
108.182,108.182,327.4799326885659,266.67018228159515,110.62070646822754
108.189,108.189,329.729874819362,266.74356707034593,110.73668190545837
108.196,108.196,331.8365287766427,266.7669357478969,110.7822257420831
108.203,108.203,333.59102934224126,266.8521824780233,110.96109514032742
108.209,108.209,334.8804649546841,266.95821038316836,111.22210507522875
108.216,108.216,335.68505465779714,267.0481431363204,111.50683684320464
108.223,108.223,336.05836189459336,267.0964873368545,111.76368117089937
108.23,108.23,336.0994731238972,267.10078394764133,111.95705427594174
108.236,108.236,336.2736562710866,267.15492726253115,112.07084444179084
108.243,108.243,336.55026299448065,267.2454591683137,112.10648681816977
108.25,108.25,336.83481488362975,267.35319456389095,112.13564246449263
108.257,108.257,337.05902339790924,267.45898222512426,112.21082090464469
108.263,108.263,337.1831562382872,267.54858139070154,112.31266969915531
108.27,108.27,337.1940374039045,267.61508525015927,112.42382170556958
108.277,108.277,337.28803318479186,267.65883116060604,112.52992169954892
108.284,108.284,337.4636429409342,267.68593984294813,112.62002239796553
108.29,108.29,337.6900010687049,267.70640826556644,112.68688124672961
108.297,108.297,337.9355688641014,267.7319613910114,112.72723391117114
108.304,108.304,338.173559909614,267.7737686484603,112.7418292042434
108.311,108.311,338.38482964761863,267.84042065649027,112.74857949280147
108.317,108.317,338.55787922482625,267.93660594772547,112.76933203227449
108.324,108.324,338.68667905941624,268.0626511524341,112.79490912141758
108.331,108.331,338.7677355396186,268.2147792096115,112.8156562317084
108.338,108.338,338.7977169902892,268.3858433562243,112.82279627328529
108.344,108.344,338.823032301242,268.5664011551289,112.83605791948762
108.351,108.351,338.9083147790139,268.74607305035767,112.87380526042243
108.358,108.358,339.0571561008838,268.9150398244151,112.93713713819403
108.365,108.365,339.270260252953,269.0653898223771,113.02437698673161
108.371,108.371,339.5442686434856,269.192008666842,113.13165052403221
108.378,108.378,339.87198874839754,269.2928572724974,113.25355463303765
108.385,108.385,340.24422613782264,269.368713485625,113.38369310731618
108.392,108.392,340.6524459751661,269.42259163279857,113.51515855969265
108.398,108.398,341.09087247785163,269.45900906071347,113.64122599022171
108.405,108.405,341.5571115493977,269.4831786748178,113.75630574057459
108.412,108.412,342.0516262463403,269.5002372359603,113.85688969248422
108.419,108.419,342.5772770800769,269.51471640282944,113.94213029954633
108.425,108.425,343.1397934428139,269.53051135968803,114.01381005749418
108.432,108.432,343.74876939781467,269.55152615770766,114.07583289808183
108.439,108.439,344.41768997522513,269.5829961869654,114.1337807107667
108.446,108.446,345.1605124882584,269.6332046587524,114.19401663782952
108.452,108.452,345.9704417884047,269.71465757631114,114.26386722114681
108.459,108.459,346.7685995448113,269.8417844273308,114.35636968891015
108.466,108.466,347.3704607969562,270.02129411058894,114.49059245940498
108.473,108.473,347.5383867132751,270.2390407803,114.67742078501414
108.479,108.479,347.9826100855902,270.4572067763543,114.90477660946156
108.486,108.486,349.07297290020654,270.6285307174775,115.13881340926525
108.493,108.493,350.6871323930785,270.7169567822719,115.3372166869015
108.5,108.5,352.59607489911826,270.72345201185743,115.46381417241
108.506,108.506,354.53888279873007,270.81206645994394,115.4980732056366
108.513,108.513,356.2879180318187,270.9522091476912,115.5585850965841
108.52,108.52,357.6881237595151,271.10506037015404,115.70125973195248
108.527,108.527,358.6693803419366,271.2329467264236,115.90403259256026
108.533,108.533,359.2381329332177,271.3073521515813,116.14082642386268
108.54,108.54,359.45695998712927,271.31398970997446,116.38557209028914
108.547,108.547,359.49363901616243,271.3744083769954,116.61498046913457
108.554,108.554,359.68173891832447,271.4892231565606,116.81063288723811
108.56,108.56,359.92469803863463,271.63874765197176,116.96048982020571
108.567,108.567,360.1452386633139,271.8013229134644,117.05966373849844
108.574,108.574,360.2919057044919,271.9576227699713,117.11029351762194
108.581,108.581,360.3405948689608,272.09374856801026,117.1204225497753
108.587,108.587,360.3894381043041,272.20279558333294,117.13882836082217
108.594,108.594,360.51672772960177,272.2848911810891,117.1723572792603
108.601,108.601,360.6922746600971,272.34598969903897,117.20864248002826
108.608,108.608,360.88239048346037,272.395801608668,117.2383448041378
108.614,108.614,361.05613068050053,272.44533585484743,117.25622937165645
108.621,108.621,361.18917610724674,272.5046090698308,117.26124780388965
108.628,108.628,361.26508733257083,272.58092082856086,117.26667494194992
108.635,108.635,361.2745159596722,272.6777984719257,117.27786800144334
108.641,108.641,361.33553417512394,272.7945758866423,117.28924995591015
108.648,108.648,361.46701499968384,272.9266497150497,117.29555312566652
108.655,108.655,361.6654526349448,273.0664631828236,117.29840863140721
108.662,108.662,361.9234663689233,273.2050611405688,117.3128478593051
108.668,108.668,362.229695346119,273.3338575042873,117.33963927638004
108.675,108.675,362.5697433603283,273.44617654729024,117.37828403912908
108.682,108.682,362.9280301153854,273.5381639706215,117.42754887973368
108.689,108.689,363.28987763535116,273.6088887198982,117.48587801973284
108.695,108.695,363.64339088776063,273.65981004849294,117.55155501686035
108.702,108.702,363.9809995643024,273.69399950803165,117.62262597095888
108.709,108.709,364.30041221859875,273.7154213307905,117.6966938985551
108.716,108.716,364.6044906304115,273.72835261751044,117.770766835275
108.722,108.722,364.8997657488352,273.73691741804004,117.84132273655301
108.729,108.729,365.19399523840326,273.7447285779768,117.90461141935063
108.736,108.736,365.4938224871786,273.7546691434924,117.9570525333136
108.743,108.743,365.80390889845864,273.7688403817281,117.99553771800528
108.749,108.749,366.12853369261387,273.78867880142246,118.01760075027495
108.756,108.756,366.47543272991703,273.81524656986215,118.02168922957875
108.763,108.763,366.8603052956514,273.84973042774686,118.03548093101384
108.77,108.77,367.30974068529935,273.8942335092355,118.06415601149168
108.776,108.776,367.85822441502717,273.9532804484804,118.10319350204102
108.783,108.783,368.52309017508185,274.03519322367384,118.15186457199773
108.79,108.79,369.2483453384997,274.1482364745055,118.21178472833374
108.797,108.797,369.87012609708506,274.28857188101597,118.27662784800665
108.803,108.803,370.1708779751646,274.4302666337217,118.33223708482765
108.81,108.81,370.3537508187082,274.53180340720957,118.37052487474013
108.817,108.817,371.05616998089465,274.5568458091695,118.39747720342851
108.824,108.824,372.1852475870565,274.6214751221796,118.42780794351211
108.83,108.83,373.56389244246856,274.7620302486713,118.47576221945047
108.837,108.837,374.99064542045016,274.94604746990245,118.55016715935557
108.844,108.844,376.289747440585,275.1341064641748,118.65424124643214
108.851,108.851,377.33954178314355,275.2890872055559,118.78708199692156
108.857,108.857,378.08034285224926,275.38203325232683,118.94446420260817
108.864,108.864,378.5084153010368,275.3960224277958,119.11890059925594
108.871,108.871,378.6626842628809,275.4636992033044,119.30027029315688
108.878,108.878,378.71648076179525,275.6019528310745,119.47749745219501
108.884,108.884,378.9014554101192,275.78941211049283,119.64045979891026
108.891,108.891,379.143368128815,275.99992352603834,119.7812737722721
108.898,108.898,379.3810973553505,276.207842277637,119.8948413773239
108.905,108.905,379.57263026146154,276.3917288460906,119.97894711732019
108.911,108.911,379.69635941125625,276.53649619725775,120.03407508010805
108.918,108.918,379.74856361038593,276.6344423556346,120.06295497892329
108.925,108.925,379.75855686367953,276.6852595754183,120.06988566499204
108.932,108.932,379.8139669549944,276.69500947976815,120.07978354327841
108.938,108.938,379.89565046089837,276.7157319010248,120.10119729127516
108.945,108.945,379.98591149526726,276.75404098249754,120.12901492735587
108.952,108.952,380.0708495417619,276.79698962026475,120.15852810797
108.959,108.959,380.14147115276046,276.83344282911315,120.18565442253946
108.965,108.965,380.19375807079984,276.85540459578664,120.2073538346282
108.972,108.972,380.2277856870606,276.8587396132244,120.22213073864762
108.979,108.979,380.2462839952791,276.87424869002297,120.2302555769154
108.986,108.986,380.2533283200128,276.90557689731736,120.23343498565734
108.992,108.992,380.25357282827304,276.9477317690464,120.23404037538512
108.999,108.999,380.2552652758203,276.9951754484435,120.23427269706023
109.006,109.006,380.2563002317054,277.04287855302107,120.23558924885913
109.013,109.013,380.2638150675226,277.08681799208557,120.23851522702417
109.019,109.019,380.27983142904867,277.1241195946723,120.24280201602262
109.026,109.026,380.30417358464365,277.1531179680473,120.24782002901472
109.033,109.033,380.3345511615193,277.1733755681773,120.25305814697437
109.04,109.04,380.3670199183776,277.18550740205825,120.2585761015621
109.046,109.046,380.39661096182294,277.1907639013781,120.26522572109961
109.053,109.053,380.4181064595839,277.1909624399552,120.27450267158554
109.06,109.06,380.4269734097449,277.1953321429701,120.28803765500645
109.067,109.067,380.43369020734195,277.20282755300315,120.30689780736029
109.073,109.073,380.45681977141254,277.21256837045627,120.33093818579555
109.08,109.08,380.49495302998383,277.2236401745166,120.35845490572794
109.087,109.087,380.54467557872545,277.23490112622886,120.38634611302662
109.094,109.094,380.6011454793272,277.2449672424995,120.41079132858086
109.1,109.1,380.659011690555,277.2524410159162,120.42820409569458
109.107,109.107,380.7134392894553,277.256291549662,120.43608765940515
109.114,109.114,380.76096436021646,277.2563703951909,120.4386652444481
109.121,109.121,380.80006503710285,277.2597952814097,120.45103935317029
109.127,109.127,380.83139925906676,277.26521412196746,120.47122820369215
109.134,109.134,380.85748919621346,277.27096796838816,120.496384048534
109.141,109.141,380.8820011160765,277.2758142591743,120.52337150744751
109.148,109.148,380.90888652210157,277.2793171439187,120.54916998644428
109.154,109.154,380.94095641524694,277.28113224016823,120.57063385319839
109.161,109.161,380.9792825515401,277.28268242218195,120.58398977467334
109.168,109.168,381.02460076898126,277.2908105396567,120.58516925537718
109.175,109.175,381.0777764538428,277.3085835821551,120.59910253577283
109.181,109.181,381.1385522111,277.3375179507757,120.62834994887368
109.188,109.188,381.20513379388115,277.3777046392647,120.66953786799256
109.195,109.195,381.27453456767415,277.42831615004116,120.71604630413786
109.202,109.202,381.3428767167433,277.4877662884337,120.75945808547495
109.208,109.208,381.4061866912536,277.5538022070421,120.79155522669859
109.215,109.215,381.4614865355892,277.6238744288143,120.8061720201518
109.222,109.222,381.5073608517605,277.69582747720443,120.81189790305136
109.229,109.229,381.54385111067575,277.76840666430894,120.8371934633294
109.235,109.235,381.57215596469797,277.8411109037273,120.87816413443733
109.242,109.242,381.5944327658781,277.9135495872087,120.92880414720177
109.249,109.249,381.61353319082906,277.98471172786014,120.98225283074864
109.256,109.256,381.6324207597891,278.05239310595624,121.0319722879498
109.262,109.262,381.65334126887757,278.1129610478354,121.07250121492065
109.269,109.269,381.6771380928475,278.16159208128397,121.09973163370474
109.276,109.276,381.7030317567444,278.1929337683908,121.11091502005348
109.283,109.283,381.7288712286719,278.20203107843,121.11718879962903
109.289,109.289,381.751740217351,278.2186924895195,121.14093895558024
109.296,109.296,381.76887990703386,278.26224959453185,121.18071783562775
109.303,109.303,381.7788586702036,278.33090050688463,121.23359771433225
109.31,109.31,381.78264173019653,278.4197190912411,121.29528974918881
109.316,109.316,381.7839511294033,278.52065898464855,121.36048635780188
109.323,109.323,381.7885127670045,278.62291660319335,121.42354457848283
109.33,109.33,381.8024288244277,278.71417916267524,121.47949225187308
109.337,109.337,381.83033675814124,278.7830097914103,121.52507348408861
109.343,109.343,381.873912835817,278.82188977321607,121.55944486698675
109.35,109.35,381.9310730058221,278.82977558455656,121.58425980294533
109.357,109.357,381.996105894039,278.84651815968374,121.60312111285255
109.364,109.364,382.06068334477874,278.8751456074359,121.62064113900013
109.37,109.37,382.11535651784146,278.8990021633905,121.64145505948851
109.377,109.377,382.1510757248702,278.90055677194596,121.66944990067556
109.384,109.384,382.16044520937925,278.9368411353489,121.70732928820944
109.391,109.391,382.1822699572299,279.0223177627256,121.75652888149894
109.397,109.397,382.23716229131793,279.1630081734097,121.81747101548797
109.404,109.404,382.3243108838347,279.3596854823739,121.8900992065444
109.411,109.411,382.4411612533714,279.608967720165,121.97439461404625
109.418,109.418,382.58441351663356,279.9047125872622,122.07033693216731
109.424,109.424,382.75037302748984,280.23900573815627,122.17705751307989
109.431,109.431,382.93453800389216,280.60262792287637,122.29165887299564
109.438,109.438,383.13095403528814,280.98540419765726,122.4084447973589
109.445,109.445,383.3320017227349,281.37688626869834,122.5189361464078
109.451,109.451,383.5290917747807,281.7676698099819,122.61277259742127
109.458,109.458,383.7129377813035,282.15019067252825,122.67831637408965
109.465,109.465,383.86814070596523,282.51363084902164,122.69928298746882
109.472,109.472,383.9595118869654,282.8279049586669,122.74947699103846
109.478,109.478,383.99562752650377,283.027062046095,122.90175594049379
109.485,109.485,384.23447801905303,283.03791456159894,123.16821434469902
109.492,109.492,384.72457766260317,283.3457771852184,123.52272341592625
109.499,109.499,385.4590049881484,283.9881730071834,123.90623064381778
109.505,109.505,386.37652888170413,284.9339764242227,124.24992754624046
109.512,109.512,387.38439924156364,286.09101776095883,124.49739335847784
109.519,109.519,388.3846524044767,287.3296387404676,124.61741082292113
109.526,109.526,389.2926290152148,288.51084686036484,124.62673474391842
109.532,109.532,390.04614221034683,289.51200722975847,124.74146608350347
109.539,109.539,390.60903170894204,290.24637279094736,124.92144286666728
109.546,109.546,390.9718242543706,290.67432767295907,125.1218726573533
109.553,109.553,391.14954980124617,290.80504909469596,125.30238185187278
109.559,109.559,391.17647805349327,290.92135923091365,125.43197529639308
109.566,109.566,391.2544469895175,291.2081934466316,125.49118103120522
109.573,109.573,391.3882405773889,291.57995764935873,125.50979161632017
109.58,109.58,391.53311516954875,291.95723186017915,125.60266977687404
109.586,109.586,391.65397222870274,292.2774802246655,125.75781623274283
109.593,109.593,391.72814705565145,292.50058192147736,125.95791790423453
109.6,109.6,391.7456835106105,292.6096731304734,126.18327244518876
109.607,109.607,391.78396792034096,292.6109992392499,126.41425543076653
109.613,109.613,391.8697163532269,292.70387078284466,126.63330603561656
109.62,109.62,391.990364299575,292.8603830894224,126.82626750909336
109.627,109.627,392.1318172714398,293.04967793484485,126.98296637669111
109.634,109.634,392.28048833561417,293.2429963248373,127.09719499481959
109.64,109.64,392.42489814148354,293.41732077539405,127.16639795498781
109.647,109.647,392.55664740583615,293.557548889017,127.19126518951373
109.654,109.654,392.6706105177322,293.6572300397893,127.20715793249047
109.661,109.661,392.7646282023775,293.71799604932846,127.25753780205642
109.667,109.667,392.8392747695341,293.7481314268156,127.33372674992337
109.674,109.674,392.8977432615597,293.76024455772233,127.42547473184311
109.681,109.681,392.9448598846373,293.76769935722206,127.52197664225612
109.688,109.688,392.98510507176326,293.7810539338845,127.61240433598279
109.694,109.694,393.02102562253975,293.80626359895956,127.68610549568218
109.701,109.701,393.052871839831,293.84460692390604,127.73310370180678
109.708,109.708,393.07923471749325,293.8934571537857,127.74525006328035
109.715,109.715,393.0981183449811,293.9475636110623,127.77263998351162
109.721,109.721,393.1078294940524,294.0006985799682,127.83933959909659
109.728,109.728,393.1082374072519,294.04732684340377,127.93974494115507
109.735,109.735,393.1188758989466,294.0839553988987,128.0637177252018
109.742,109.742,393.1391814713227,294.1100088146896,128.19837984006023
109.748,109.748,393.16803601915956,294.1279389292478,128.33010057104434
109.755,109.755,393.20356377415607,294.14210380811664,128.44617047473005
109.762,109.762,393.2428527153991,294.15694409513515,128.53613877558732
109.769,109.769,393.2820182816015,294.1760453602916,128.59289314777354
109.775,109.775,393.3166842815525,294.20250957403056,128.61336774388317
109.782,109.782,393.342706722644,294.2393675099016,128.62814246399375
109.789,109.789,393.35689304399057,294.28921534698105,128.67373196618612
109.796,109.796,393.35748229564257,294.3535601254566,128.74331827315206
109.802,109.802,393.37073343568505,294.4325786888288,128.82852172140286
109.809,109.809,393.39676826001534,294.525366858459,128.92000223173915
109.816,109.816,393.4333864288664,294.63013908403343,129.00833337735395
109.823,109.823,393.47713472624696,294.7438028942138,129.08546891679902
109.829,109.829,393.52310869278534,294.8609903074467,129.14643476643937
109.836,109.836,393.5649488563981,294.97331538095796,129.19050404756126
109.843,109.843,393.59519569285396,295.06950868293694,129.2213917356178
109.85,109.85,393.6059745628271,295.1364820368384,129.24648780256126
109.856,109.856,393.6220754943185,295.1611241796822,129.27535962652885
109.863,109.863,393.67106913153316,295.1897355789386,129.31776901445252
109.87,109.87,393.75674035845566,295.2783101113486,129.3815522299775
109.877,109.877,393.8801193581546,295.42817058206066,129.47091540416994
109.883,109.883,394.03943025974144,295.635232748181,129.5857053788807
109.89,109.89,394.2306115614739,295.89100790224364,129.72185092532735
109.897,109.897,394.4483407970823,296.18428076833004,129.87266308564975
109.904,109.904,394.6873252472834,296.50309346545953,130.03040588768272
109.91,109.91,394.94351142363826,296.8366605615636,130.1876348621637
109.917,109.917,395.214797716522,297.1768277070871,130.33808118706784
109.924,109.924,395.5009948213423,297.518839449982,130.47713517866694
109.931,109.931,395.80323470779723,297.8614675957679,130.60211709653288
109.937,109.937,396.12330054498995,298.20668767651034,130.71235853079202
109.944,109.944,396.46311731409037,298.5590466094056,130.80879587520158
109.951,109.951,396.8241919089413,298.92471755940255,130.89280178026277
109.958,109.958,397.20664276582045,299.3101887280805,130.9645586134146
109.964,109.964,397.60804554205,299.72097847080056,131.02188480185754
109.971,109.971,398.0231352084135,300.16126267126015,131.06036806545154
109.978,109.978,398.445081581456,300.6348914231003,131.07497908176248
109.985,109.985,398.8671343963893,301.1462841143519,131.08827725755881
109.991,109.991,399.2790686835669,301.6953168239162,131.13531434729325
109.998,109.998,399.65084187393984,302.25733726064266,131.23268146505484
110.005,110.005,399.91235525461144,302.7534608085669,131.41088367372618
110.012,110.012,399.96081203343635,303.04453022067577,131.69577098140894
110.018,110.018,400.21370286915135,303.1134798590117,132.07807701716084
110.025,110.025,400.7911382277642,303.6429033747804,132.50165614391426
110.032,110.032,401.6392324122788,304.6331688214137,132.88263664279876
110.039,110.039,402.65344301200935,305.9858586427771,133.1434669592768
110.045,110.045,403.71445562762085,307.5375382790464,133.24031794240378
110.052,110.052,404.71222281534654,309.10048383416284,133.30783422185198
110.059,110.059,405.5573026109495,310.49641896281065,133.50348693883123
110.066,110.066,406.1879803458741,311.58340184082954,133.76989524065644
110.072,110.072,406.575969847408,312.27680699911883,134.04515150070307
110.079,110.079,406.72684261739494,312.55944195514587,134.27651247020694
110.086,110.086,406.78004872598916,312.64233230093055,134.42903903473646
110.093,110.093,406.9868971913713,313.0005845568512,134.488084950854
110.099,110.099,407.2897298506762,313.5219140423175,134.51956919144675
110.106,110.106,407.63232153608556,314.0936530431889,134.62634974906933
110.113,110.113,407.9665537572024,314.62023295607105,134.78668836950024
110.12,110.12,408.2565349287472,315.03453769201167,134.97730468589145
110.126,110.126,408.47989110641333,315.30175292584806,135.1765535239615
110.133,110.133,408.6271008121948,315.41638234174957,135.36558529419918
110.14,110.14,408.6998177064687,315.43756582527953,135.52845068768485
110.147,110.147,408.70826055353615,315.5637579233161,135.65241404232717
110.153,110.153,408.74873953695413,315.757879333239,135.72887279330314
110.16,110.16,408.8211333993011,315.98316882730353,135.7543909107008
110.167,110.167,408.9095468705112,316.2081997567079,135.77763075766097
110.174,110.174,409.00107776798916,316.40998555713514,135.84232975964832
110.18,110.18,409.0869352343338,316.575189176809,135.93740109479097
110.187,110.187,409.1631258531491,316.699891640852,136.04964478392947
110.194,110.194,409.2310597890585,316.78853200871407,136.16530654444537
110.201,110.201,409.2973846136504,316.8521201564386,136.2715045438486
110.207,110.207,409.37178469166474,316.90512925209,136.35792318083082
110.214,110.214,409.4628230952469,316.9609132867066,136.4188517299882
110.221,110.221,409.57334971774577,317.026825322739,136.45495240686094
110.228,110.228,409.69726817462464,317.10079262759564,136.47393687449872
110.234,110.234,409.818796933791,317.1704833267213,136.48963270357856
110.241,110.241,409.9143220271609,317.21519844503166,136.5194238869431
110.248,110.248,409.95627512363,317.22056661159644,136.58062394105386
110.255,110.255,409.994496150746,317.30074220814925,136.6866887464068
110.261,110.261,410.1339334425382,317.47589350654107,136.84408835631467
110.268,110.268,410.3870524314534,317.759130952243,137.05042601344346
110.275,110.275,410.75685175827624,318.1558900541332,137.2942176076822
110.282,110.282,411.2376382376146,318.6646087354104,137.5564042996394
110.288,110.288,411.81633997400775,319.277827151808,137.81325794110597
110.295,110.295,412.47381356571265,319.9832892611104,138.04023775603886
110.302,110.302,413.18467579519967,320.7638751044338,138.21482905516066
110.309,110.309,413.91082984308656,321.5917310836126,138.31364294277958
110.315,110.315,414.58817854308097,322.41321445801464,138.3213895023369
110.322,110.322,415.1217055644553,323.1362883156368,138.46790552796855
110.329,110.329,415.40924879207097,323.6435099155723,138.7621545321852
110.336,110.336,415.4317421436172,323.8327774210956,139.17010081977614
110.342,110.342,415.7607377720112,324.0089276547006,139.6228083362141
110.349,110.349,416.33196212294996,324.5304245639043,140.0433305289709
110.356,110.356,417.0473892078579,325.3211839946212,140.36949597409964
110.363,110.363,417.8017261641595,326.27085706890125,140.5636051796798
110.369,110.369,418.50178357473806,327.2566878046885,140.61335856229167
110.376,110.376,419.0780050300575,328.16239835711946,140.69784738105858
110.383,110.383,419.4889874585747,328.8941967596605,140.88970256474116
110.39,110.39,419.72095995828033,329.39282451798675,141.15260080918762
110.396,110.396,419.78373777797333,329.63924380605926,141.4475585928059
110.403,110.403,419.8631125229825,329.65262087739,141.73785389294898
110.41,110.41,420.04756561357635,329.82369871549963,141.99239566952062
110.417,110.417,420.2967644048049,330.11404395115056,142.18815920283217
110.423,110.423,420.57286251003916,330.4553456624604,142.31166572765088
110.43,110.43,420.8449263719756,330.78736651994507,142.35918025894674
110.437,110.437,421.09155168191825,331.0651640385342,142.38268680382032
110.444,110.444,421.30124427490733,331.26208115398396,142.46543428567318
110.45,110.45,421.4710512884087,331.36926405448884,142.59140980208653
110.457,110.457,421.60462453210044,331.3928661514877,142.74345599016291
110.464,110.464,421.7101239471622,331.43572413266645,142.9060864913844
110.471,110.471,421.7976248960695,331.5215003695712,143.06698853354447
110.477,110.477,421.8768503267994,331.62470469084604,143.21700261491742
110.484,110.484,421.956398197991,331.72180518474516,143.34946812921666
110.491,110.491,422.04353249693594,331.794363453969,143.4598681210647
110.498,110.498,422.14306648829256,331.83117897993554,143.54581342714124
110.504,110.504,422.2557436539401,331.8333642194598,143.60697654494575
110.511,110.511,422.3774413804792,331.87068954916015,143.6448707530842
110.518,110.518,422.49991453252375,331.93404046143286,143.6626606102489
110.525,110.525,422.6127837067586,332.0113908381326,143.6650668927215
110.531,110.531,422.70587155569547,332.0901970103658,143.67225740079203
110.538,110.538,422.77123877852284,332.1594479792465,143.68360857694384
110.545,110.545,422.80465385789444,332.2110699394119,143.69591254440437
110.552,110.552,422.80625050159296,332.24056726289655,143.70931611355206
110.558,110.558,422.83233653639314,332.24689285263594,143.72701198331853
110.565,110.565,422.8793101539524,332.262123814551,143.7538162905262
110.572,110.572,422.9396391770527,332.29568084164555,143.79436041510664
110.579,110.579,423.00677718353285,332.34346990218245,143.85140891593204
110.585,110.585,423.0759706811764,332.400878143249,143.92462036576356
110.592,110.592,423.14400410390925,332.4630579618913,144.01023764262527
110.599,110.599,423.20803047778656,332.5250449935885,144.1021502977212
110.606,110.606,423.2638275945376,332.581184497657,144.19405177242902
110.612,110.612,423.30421434600987,332.6239363389171,144.28171193957306
110.619,110.619,423.3183750610091,332.64280772078644,144.3643597160307
110.626,110.626,423.34431976836976,332.6614620374049,144.44463081405362
110.633,110.633,423.42571388879,332.73350586734347,144.52709598169403
110.639,110.639,423.5772679419662,332.87523756427464,144.6159183996684
110.646,110.646,423.81081393775133,333.10119623067357,144.71265012235574
110.653,110.653,424.1331589353038,333.42188332083384,144.8152011754922
110.66,110.66,424.54456580962767,333.8419374916623,144.91839943152993
110.666,110.666,425.0378091207181,334.35904494973727,145.01538796062619
110.673,110.673,425.5958188196034,334.96204308421324,145.09744289967801
110.68,110.68,426.185963652342,335.62515490254225,145.15037742362327
110.687,110.687,426.75363926435404,336.2982832184211,145.15223939092
110.693,110.693,427.2242745300343,336.90235050642946,145.22292007218022
110.7,110.7,427.5217704488411,337.3425898647347,145.37002964323298
110.707,110.707,427.5961668241131,337.53782240780174,145.57001052684996
110.714,110.714,427.7513345889506,337.62905613473987,145.7789607199294
110.72,110.72,428.10150959443274,337.9988431163658,145.94902840129316
110.727,110.727,428.58566775321265,338.5940064849828,146.0427908446732
110.734,110.734,429.1318750684304,339.3277442578379,146.04401335733095
110.741,110.741,429.66936637708284,340.09668442798556,146.13759645950864
110.747,110.747,430.1381812234622,340.8012078870746,146.30172491688856
110.754,110.754,430.49714710543174,341.36384771182645,146.5006466097428
110.761,110.761,430.72785722606204,341.7403041802497,146.69180025312468
110.768,110.768,430.8329135165856,341.92112520281484,146.83428017513472
110.774,110.774,430.83571698898004,341.9261562945363,146.8974778768482
110.781,110.781,430.92036224223006,342.0568386453601,146.92781700350508
110.788,110.788,431.0585765351023,342.2728356695775,147.04854032667302
110.795,110.795,431.2237611347204,342.5228884747676,147.24259574612626
110.801,110.801,431.39318734186185,342.76276613910545,147.48442730916275
110.808,110.808,431.54935699421134,342.9604491552665,147.7449631348787
110.815,110.815,431.6808065656222,343.09830004176416,147.995538379074
110.822,110.822,431.7822146515455,343.172456615602,148.211063586077
110.828,110.828,431.8536108776232,343.18949109235393,148.37259156170808
110.835,110.835,431.89860892559517,343.2177050200338,148.46897448983998
110.842,110.842,431.92246156972567,343.27854309929234,148.4973159157984
110.849,110.849,431.93059770389556,343.36113741846606,148.53243379361933
110.855,110.855,431.9340780257959,343.4573263253487,148.62076692727567
110.862,110.862,431.94773370518163,343.5618042709766,148.74883764426664
110.869,110.869,431.97251823297705,343.67163671261625,148.9023788402556
110.876,110.876,432.00966780739327,343.7850249549123,149.06835144975895
110.882,110.882,432.0581799054098,343.8994097666869,149.2362345299786
110.889,110.889,432.11328391512797,344.009606749945,149.398338328322
110.896,110.896,432.1662289287394,344.1067966119887,149.54923614863063
110.903,110.903,432.20498704973875,344.17857613732167,149.68484526393743
110.909,110.909,432.2153530397436,344.2097993994267,149.80176232305615
110.916,110.916,432.2485184972203,344.23562486613423,149.89716858318792
110.923,110.923,432.33982918558684,344.3345793330096,149.9692243584113
110.93,110.93,432.5016822612904,344.5205821525505,150.01770748392312
110.936,110.936,432.7426442291019,344.80403455868895,150.04469984705293
110.943,110.943,433.0664129602588,345.1909547468694,150.05506416466872
110.95,110.95,433.4717277503023,345.68260005566003,150.0562564692627
110.957,110.957,433.9532299397483,346.2753453565624,150.05684003414245
110.963,110.963,434.50096032157455,346.958982976085,150.0623248435631
110.97,110.97,435.0924419380288,347.70958939358763,150.06656336015223
110.977,110.977,435.6765797267195,348.4758487610008,150.09018105472066
110.984,110.984,436.16500489735074,349.1691618509998,150.18358885967166
110.99,110.99,436.4510952804523,349.6757928681227,150.378123329484
110.997,110.997,436.4527635179783,349.8926086455754,150.666555280403
111.004,111.004,436.7575932722865,350.022886291988,150.99894956746303
111.011,111.011,437.3261772380164,350.4976151647954,151.30373209174724
111.017,111.017,438.0711424067613,351.2594631241856,151.51458384327432
111.024,111.024,438.8881084773788,352.21038883790055,151.58887048207836
111.031,111.031,439.6785769165801,353.2289702011879,151.66211452759075
111.038,111.038,440.3633279000046,354.1903015005018,151.8631549896813
111.044,111.044,440.8881199863482,354.9869522462412,152.1495946686757
111.051,111.051,441.2258188497256,355.5463841656556,152.46769913937592
111.058,111.058,441.37627416503483,355.8399946710531,152.76316225380634
111.065,111.065,441.3896127000535,355.8820627665033,152.98968330848467
111.071,111.071,441.52659310591355,356.0437543090494,153.11520105909025
111.078,111.078,441.73923574144055,356.3418080392068,153.12539973610546
111.085,111.085,441.9803111999087,356.7035582429546,153.22690335495588
111.092,111.092,442.209992787793,357.06296799818705,153.4214063667739
111.098,111.098,442.3998559695138,357.36872694475835,153.67981543142116
111.105,111.105,442.5339749761138,357.58826134629265,153.96800638026554
111.112,111.112,442.6074789148735,357.7080172940467,154.25193373843405
111.119,111.119,442.62372053643185,357.7309246807342,154.50166693299144
111.125,111.125,442.6560782730307,357.7896541427499,154.69390844840737
111.132,111.132,442.72545053639396,357.90740690881876,154.81319677812982
111.139,111.139,442.81930745683854,358.0589942498171,154.8522923708892
111.146,111.146,442.92590360890955,358.2207939442775,154.8925075873324
111.152,111.152,443.0356090587737,358.3737000848541,155.00358805466945
111.159,111.159,443.14159967230245,358.50468136982465,155.17072301224502
111.166,111.166,443.2398813234391,358.60702056516664,155.37474796415037
111.173,111.173,443.3288890281718,358.67927980083556,155.59480127825947
111.179,111.179,443.40857389318506,358.72331160931583,155.81088302397566
111.186,111.186,443.4791624864202,358.7430626405372,156.0057345889061
111.193,111.193,443.54109915317196,358.7455117169629,156.16650053919895
111.2,111.2,443.59576630971884,358.75013151113274,156.28611115566912
111.206,111.206,443.64467504147007,358.7518913230718,156.36291165175408
111.213,111.213,443.6883344060292,358.7581863184037,156.39850254258118
111.22,111.22,443.7270805947387,358.7719553978812,156.40122245374408
111.227,111.227,443.7625558808219,358.78884232180803,156.4387688166868
111.233,111.233,443.7977547340582,358.80322990480664,156.5069164656773
111.24,111.24,443.8357720211601,358.8100171797055,156.60001696582006
111.247,111.247,443.8787044222097,358.8142346781974,156.71015373659094
111.254,111.254,443.92739482365533,358.8302193780019,156.8269063338463
111.26,111.26,443.98154698935866,358.85565239713316,156.93827990000418
111.267,111.267,444.0398468129273,358.88568935951236,157.03256030151329
111.274,111.274,444.1002982026907,358.91431516386297,157.10031979599412
111.281,111.281,444.1608968611384,358.9357585514512,157.1358636263397
111.287,111.287,444.2203155876472,358.94549079834974,157.13780606159744
111.294,111.294,444.2781964405933,358.9501673383999,157.16677165956287
111.301,111.301,444.3349504435488,358.9698165448483,157.22068619233377
111.308,111.308,444.39122553482923,359.0028332634532,157.29149336672842
111.314,111.314,444.4473309820119,359.04571260330573,157.37031311844106
111.321,111.321,444.5029130028272,359.09364329654017,157.44859057719785
111.328,111.328,444.5569921838122,359.1413636694074,157.51900297583688
111.335,111.335,444.6082731236662,359.18409835752436,157.57606739244153
111.341,111.341,444.65556292684545,359.21833302058945,157.61638838182822
111.348,111.348,444.69814469069877,359.2422289057685,157.63852797685036
111.355,111.355,444.73601248138,359.25561199020837,157.6425903411386
111.362,111.362,444.76991084683505,359.2596502637638,157.65547085862707
111.368,111.368,444.8011498385854,359.26287357532004,157.6835513693608
111.375,111.375,444.8312786903955,359.27077388373476,157.72469983914533
111.382,111.382,444.8617809355068,359.28066695492686,157.77636690825892
111.389,111.389,444.8938730064799,359.2901231711226,157.83535052237582
111.395,111.395,444.9283735987093,359.29717843746886,157.8975279736142
111.402,111.402,444.96561890780066,359.30036852189573,157.9578160549678
111.409,111.409,445.0054728112585,359.3020827087968,158.01056197332787
111.416,111.416,445.04746349626197,359.30938009412375,158.05035526716748
111.422,111.422,445.09097024451,359.3225358416099,158.07300672360338
111.429,111.429,445.13531880992826,359.3412555494731,158.0763827532607
111.436,111.436,445.1796866156316,359.36447205259964,158.09185550652293
111.443,111.443,445.2228770582428,359.390272136878,158.12311970874822
111.449,111.449,445.2632069849343,359.41608798096223,158.1649265048517
111.456,111.456,445.2987404958993,359.4391215927456,158.21074152016857
111.463,111.463,445.32780872172566,359.4568656546345,158.25391732767596
111.47,111.47,445.34943694444667,359.4675667124528,158.2888430636384
111.476,111.476,445.3633613238166,359.47047536140593,158.31181592928934
111.483,111.483,445.36974222049787,359.47513424173763,158.32152841364578
111.49,111.49,445.3705896449189,359.4863896200631,158.32384868131945
111.497,111.497,445.3783523261429,359.50280590704443,158.3346171881958
111.503,111.503,445.3928304220145,359.5227176122067,158.34846864284995
111.51,111.51,445.41393130852805,359.5443886994444,158.35925066330913
111.517,111.517,445.44141284034373,359.56613511497187,158.3611969033917
111.524,111.524,445.47447799964607,359.58647991413244,158.37249479952663
111.53,111.53,445.5115043999248,359.604358249494,158.39957497105067
111.537,111.537,445.54996716328293,359.619348957165,158.44307662111564
111.544,111.544,445.5862785013529,359.6319497980272,158.5020973553145
111.551,111.551,445.61564291262124,359.6438005791348,158.57485037842352
111.557,111.557,445.63252978520796,359.6572516801266,158.65938127107412
111.564,111.564,445.63377248968317,359.67355788373294,158.7538843593448
111.571,111.571,445.65891823399295,359.6904607376351,158.856381141161
111.578,111.578,445.7131377103906,359.70150608873587,158.96382988741547
111.584,111.584,445.7985209875189,359.70463569471474,159.07089940398384
111.591,111.591,445.9116399756011,359.7282008076529,159.16914473909557
111.598,111.598,446.0432891975072,359.7734958940434,159.24748327471693
111.605,111.605,446.18054914638486,359.8363867004923,159.29414547548618
111.611,111.611,446.3097621765048,359.908826438968,159.2995090333634
111.618,111.618,446.4188917936158,359.98100644822165,159.34021538637475
111.625,111.625,446.49879449264716,360.04333123814746,159.42546089883544
111.632,111.632,446.5438693541086,360.088123968203,159.54782902623924
111.638,111.638,446.55242719097316,360.11088171676096,159.69594630391114
111.645,111.645,446.57824638114005,360.1110629873289,159.85690449502883
111.652,111.652,446.63319741108666,360.13190386219907,160.0182535529698
111.659,111.659,446.7101013020073,360.1688110825732,160.16922535282882
111.665,111.665,446.8010138023364,360.215862036112,160.3013498346373
111.672,111.672,446.8980994892855,360.2667692803245,160.40874801096248
111.679,111.679,446.9942422149391,360.3157398286158,160.48822813849756
111.686,111.686,447.08348970663883,360.35810915004794,160.53915356586177
111.692,111.692,447.1613331762056,360.39068546914405,160.5630726992036
111.699,111.699,447.22483914402915,360.4118565234814,160.56320424314097
111.706,111.706,447.27267399559224,360.4215402357949,160.5825224807358
111.713,111.713,447.30497461872113,360.42208784214915,160.6163657073801
111.719,111.719,447.3230071214952,360.43063389092634,160.65969928722166
111.726,111.726,447.3287074889707,360.4444487572689,160.7077454293446
111.733,111.733,447.3331418079114,360.46075814943595,160.75621673443715
111.74,111.74,447.3455366898439,360.47705703383116,160.80147760573342
111.746,111.746,447.36387768336607,360.4912795004916,160.84069809535913
111.753,111.753,447.3862780923771,360.50186043502265,160.87197857635402
111.76,111.76,447.41086509582647,360.50772341358555,160.8943767814905
111.767,111.767,447.43571770321086,360.50822488233996,160.9078011210343
111.773,111.773,447.45890873043027,360.51335965970117,160.91279411343714
111.78,111.78,447.4786356095317,360.524064067454,160.91529615049035
111.787,111.787,447.4933609771124,360.5399015692293,160.92413921187273
111.794,111.794,447.5018423574322,360.5600179440819,160.93807069551065
111.8,111.8,447.5030467941095,360.58315925846864,160.95586416696338
111.807,111.807,447.50997469569256,360.60782873814003,160.97644242502386
111.814,111.814,447.5256092850685,360.63255595574634,160.99892897074963
111.821,111.821,447.55014922098667,360.6561544873311,161.0226205115999
111.827,111.827,447.58340330663054,360.67786075619915,161.04694879071627
111.834,111.834,447.62471625187254,360.69734822312984,161.07144416695684
111.841,111.841,447.67275778407424,360.71468864209515,161.09564079338764
111.848,111.848,447.725335752188,360.7303347442842,161.11891329606897
111.854,111.854,447.77945393394384,360.7451083029179,161.14031669873492
111.861,111.861,447.8316130672407,360.76003554052403,161.15853017445363
111.868,111.868,447.87814674101105,360.7758849243185,161.1720037210447
111.875,111.875,447.9155008739616,360.7925402570921,161.17934502381436
111.881,111.881,447.9406224440791,360.8086045680336,161.17987673625927
111.888,111.888,447.95160344167084,360.82155922356094,161.18550034888338
111.895,111.895,447.9548172897944,360.82850259203826,161.19479918806226
111.902,111.902,447.9700785474817,360.8297918213445,161.20341539092894
111.908,111.908,447.99331261843673,360.83990437662925,161.20571325560252
111.915,111.915,448.01934779001857,360.85738754708655,161.215529710631
111.922,111.922,448.0430122214651,360.879036262231,161.24209725529877
111.929,111.929,448.0601055581897,360.900740645732,161.28768385539033
111.935,111.935,448.06794323697926,360.91855502713713,161.35142525262117
111.942,111.942,448.07046942110253,360.92961395924175,161.42932763568783
111.949,111.949,448.0831898512905,360.9326277604647,161.51512538646733
111.956,111.956,448.10509815047646,360.93734792299045,161.60171345068042
111.962,111.962,448.13470781965276,360.9482176309984,161.68261012388467
111.969,111.969,448.1702370466018,360.9629078031738,161.75295689590254
111.976,111.976,448.20971977178095,360.97892372494863,161.80989657141433
111.983,111.983,448.25117512259476,360.9940942833034,161.85246814125148
111.989,111.989,448.2928425174064,361.00690785531043,161.8812210564145
111.996,111.996,448.333384153551,361.0166857898479,161.89771804108744
112.003,112.003,448.37195411363143,361.02356778302953,161.90406690862923
112.01,112.01,448.4080975641974,361.02831976157563,161.90558436171838
112.016,112.016,448.4415415717613,361.0320507938582,161.91278970765458
112.023,112.023,448.471998265181,361.0359261066106,161.9237989707784
112.03,112.03,448.4990646864568,361.0409192911735,161.93713690734103
112.037,112.037,448.5222169648937,361.04762140951385,161.9518120927868
112.043,112.043,448.540863512207,361.05613024769883,161.9673755483133
112.05,112.05,448.554471840044,361.06605811279167,161.98392693615762
112.057,112.057,448.56278183282245,361.0766621175371,162.00202055040882
112.064,112.064,448.5659954331879,361.08702871526737,162.02248979412445
112.07,112.07,448.56720572135765,361.0962254840951,162.04626164493945
112.077,112.077,448.5718606494093,361.1033937873494,162.07419639136373
112.084,112.084,448.5788478353749,361.1078203298613,162.10692356320914
112.091,112.091,448.58701852863265,361.1090197907368,162.14465164277976
112.097,112.097,448.5952697130533,361.11123325147776,162.1870193084831
112.104,112.104,448.6026789874453,361.11672856262,162.23310805700726
112.111,112.111,448.60864817499396,361.1250977368981,162.28161928897987
112.118,112.118,448.61295176808164,361.1357181463643,162.33107342661094
112.124,112.124,448.6156673656379,361.1478200186496,162.37992652514498
112.131,112.131,448.6170706744504,361.1605817624844,162.42662168407324
112.138,112.138,448.61757198356173,361.17325885320764,162.46963692642282
112.145,112.145,448.61769317441997,361.1852958172345,162.50756960965927
112.151,112.151,448.6180170134914,361.19636644900913,162.53924873168302
112.158,112.158,448.6190472701982,361.20632968198856,162.56382592695527
112.165,112.165,448.62101469322505,361.2151301612213,162.58079332108073
112.172,112.172,448.62373433336296,361.2227031292682,162.58990740181557
112.178,112.178,448.6265947319394,361.2289262259061,162.5910548562899
112.185,112.185,448.6286863257997,361.2336113366815,162.59797571897766
112.192,112.192,448.6290120924527,361.23652284133743,162.61311131228135
112.199,112.199,448.6312966603924,361.23743344408655,162.63662577571833
112.205,112.205,448.6366457620004,361.2386483697395,162.6685552060669
112.212,112.212,448.64497182675194,361.241928734431,162.7085496026296
112.219,112.219,448.65566470618336,361.2470418757378,162.75557759430197
112.226,112.226,448.66718426233416,361.2536781192127,162.80768554018348
112.232,112.232,448.67610091463206,361.2618132708951,162.86199796062363
112.239,112.239,448.6779755592728,361.2725591019622,162.9151031318721
112.246,112.246,448.68578569203686,361.28818603588644,162.96346619624828
112.253,112.253,448.7037915353289,361.3098260186161,163.003427013035
112.259,112.259,448.7327520833353,361.33473628035216,163.03109194230953
112.266,112.266,448.7743623755824,361.3561278708796,163.04255737555616
112.273,112.273,448.82946296570606,361.36542054248685,163.05081739229155
112.28,112.28,448.8964616152704,361.3759431048779,163.08159142959153
112.286,112.286,448.9714505725167,361.41122473136545,163.13652183670243
112.293,112.293,449.0495782557218,361.47245398802687,163.21561384079982
112.3,112.3,449.1266596015257,361.5570006595257,163.3167911308948
112.307,112.307,449.2001859033348,361.6591778101305,163.43577152439866
112.313,112.313,449.26946990279816,361.77152754669294,163.566485089075
112.32,112.32,449.3353006792643,361.8862392599208,163.70194415459568
112.327,112.327,449.3993110695128,361.9964054067501,163.8351977286371
112.334,112.334,449.4626765881921,362.09699008186766,163.96002367251282
112.34,112.34,449.5244498340549,362.1855149433561,164.07120240510983
112.347,112.347,449.58114319259636,362.26237715585677,164.1644734981018
112.354,112.354,449.6281184415306,362.3304362081851,164.23660026597966
112.361,112.361,449.6610227965845,362.3937886184494,164.28582421236342
112.367,112.367,449.67610286277596,362.45641408374064,164.31236541001553
112.374,112.374,449.6820539072623,362.52129468486925,164.3184895713607
112.381,112.381,449.7119193200015,362.5899474746998,164.32889921057554
112.388,112.388,449.7694876491,362.66230361464324,164.35113154285565
112.394,112.394,449.8616213698867,362.7371070630177,164.3808247542739
112.401,112.401,450.00003034544744,362.81273111882075,164.41559789209393
112.408,112.408,450.2014373487855,362.887953181012,164.456750831762
112.415,112.415,450.48581185213226,362.96232132946574,164.5099719834243
112.421,112.421,450.8720172622094,363.0360400534629,164.5839488422838
112.428,112.428,451.3703852600373,363.10944054326905,164.68697382426416
112.435,112.435,451.9749972313927,363.18210342466614,164.82323590701304
112.442,112.442,452.6606065915344,363.25180448966785,164.99078107361427
112.448,112.448,453.38621584406405,363.31368120790086,165.1818550616748
112.455,112.455,454.10280026348454,363.35999749163244,165.3848754395266
112.462,112.462,454.7610707205065,363.380528091346,165.58679775590684
112.469,112.469,455.3168553981302,363.3977914239467,165.77513428224077
112.475,112.475,455.73410470983146,363.4658998458997,165.93946761633973
112.482,112.482,455.9864903305226,363.59817915510996,166.07235977961636
112.489,112.489,456.05832649223845,363.8072027100763,166.16949983627546
112.496,112.496,456.1714942992316,364.10334992922196,166.22929913623327
112.502,112.502,456.46275055300083,364.4932143482795,166.25256785721177
112.509,112.509,456.9146851896182,364.97845361847266,166.26235140351054
112.516,112.516,457.5017262680884,365.55545806105596,166.29835606867886
112.523,112.523,458.1938355426072,366.2157752820227,166.35016969627466
112.529,112.529,458.9609963636726,366.9470177628811,166.40487042157577
112.536,112.536,459.7774236310823,367.7339742842841,166.44950291767805
112.543,112.543,460.6240630612116,368.55968513418594,166.47424565865978
112.55,112.55,461.4868844481366,369.40644740928184,166.47536307673013
112.556,112.556,462.3471444174435,370.2564186766558,166.49295681621237
112.563,112.563,463.16444721478166,371.0897097485801,166.5142162823956
112.57,112.57,463.86382230422595,371.8786359662522,166.51644129713145
112.577,112.577,464.3367368515743,372.5823418468176,166.55722363958267
112.583,112.583,464.45257266455326,373.1466710551152,166.66149926004599
112.59,112.59,464.82184357234706,373.50876597854113,166.8437681587411
112.597,112.597,465.7497169063054,373.608432472946,167.10786730689193
112.604,112.604,467.19573262103853,373.8065037150249,167.4431254425528
112.61,112.61,468.9930408982956,374.2911820767503,167.82670942273495
112.617,112.617,470.8979702956393,375.00351303696624,168.22939860131433
112.624,112.624,472.65910335643673,375.85542267800787,168.62002946017662
112.631,112.631,474.0699274192837,376.7526666310449,168.96803570467964
112.637,112.637,475.0000745264598,377.6116469927866,169.24552637533932
112.644,112.644,475.40591764813934,378.3686572460189,169.43022488643712
112.651,112.651,475.48967148629515,378.98358313356647,169.5092510313363
112.658,112.658,475.9702820209706,379.44028225244364,169.53639192638158
112.664,112.664,476.7220824086738,379.7446511129294,169.65714822389415
112.671,112.671,477.6115115423898,379.9206598997886,169.84799455941945
112.678,112.678,478.5181846949267,380.0047397225821,170.0787898286712
112.685,112.685,479.3493669121221,380.0391924719904,170.3182736774967
112.691,112.691,480.0467976259825,380.0654487439952,170.53921249116277
112.698,112.698,480.58642766479943,380.1181595097864,170.72207354220555
112.705,112.705,480.9729224068617,380.22116941915885,170.8568874812272
112.712,112.712,481.23121334386565,380.38597869538705,170.94356175484083
112.718,112.718,481.3972118006011,380.6125245057491,170.99094979647143
