Time,Time,Sum Acc X,Sum Acc Y,Sum Acc Z
312.869,312.869,0.00015488220589434374,0.0012940190509442733,0.00012240715221240064
312.876,312.876,0.0014063342641736519,0.011273715984538744,0.0010527464360199008
312.883,312.883,0.006236110569623705,0.04948395418250194,0.004580749313942754
312.89,312.89,0.017786128794141903,0.14899425775286315,0.013376441960216463
312.896,312.896,0.03638282819245743,0.3511176609483797,0.02917311273172074
312.903,312.903,0.057571544356969644,0.6950692078695032,0.05011628229384528
312.91,312.91,0.0775143219158123,1.2047464867457685,0.06942984641327407
312.917,312.917,0.10251623280565109,1.876806783458587,0.07627605066738527
312.923,312.923,0.1528779124765148,2.675131093004248,0.0945708225307748
312.93,312.93,0.2586800833648242,3.5345051505048213,0.14977471914034884
312.937,312.937,0.4522888264751517,4.372597677805359,0.2500787455525193
312.944,312.944,0.7608490084563259,5.106077705976237,0.3979326395264765
312.95,312.95,1.2001993232087058,5.665764077530224,0.5886206215035983
312.957,312.957,1.7714687840731214,6.007423247573846,0.8098325081508868
312.964,312.964,2.460859031995472,6.116975057252063,1.0424940573817705
312.971,312.971,3.2421315557755657,6.22407947935636,1.2628761051525594
312.977,312.977,4.080308580692072,6.507768586941156,1.4453205967741436
312.984,312.984,4.934456430111013,6.908998611591461,1.5646653841336362
312.991,312.991,5.756826600408237,7.353238692922997,1.5983841296892123
312.998,312.998,6.4884815234218065,7.751371727011592,1.6680221207440467
313.004,313.004,7.058011768025688,8.002368899950762,1.8512443635198894
313.011,313.011,7.39141234684106,8.00687737860245,2.1459655209957766
313.018,313.018,7.434637309691908,8.319777553730548,2.5316609767489084
313.025,313.025,7.691142130417169,8.967127613330016,2.966663121996361
313.031,313.031,8.204346984218315,9.905680817375531,3.392572419373414
313.038,313.038,8.893611012640848,11.045777191306904,3.7452285076982905
313.045,313.045,9.665573855201842,12.273761930623676,3.9688710122550592
313.052,313.052,10.433471822905608,13.473405756728402,4.028771736560725
313.058,313.058,11.12773412322877,14.54299930691694,4.139399424569536
313.065,313.065,11.701839765945595,15.407512415952645,4.399250476520667
313.072,313.072,12.13483096783023,16.02552469144358,4.763847892479346
313.079,313.079,12.429306983656774,16.390359517122036,5.17390442814837
313.085,313.085,12.605644456564614,16.5255398749145,5.566105035071038
313.092,313.092,12.695719047717347,16.574664168097865,5.8842533461318896
313.099,313.099,12.739039706213301,16.750559826962853,6.088028956655215
313.106,313.106,12.77871217811788,16.99325519695148,6.15834407307337
313.112,313.112,12.851376538279744,17.249757473074638,6.21737839589221
313.119,313.119,12.974834476756927,17.481930883216297,6.380661539928306
313.126,313.126,13.143030536727158,17.672166148407367,6.608390577254112
313.133,313.133,13.32865193587102,17.826132340907026,6.854745102131556
313.139,313.139,13.489573531605355,17.970471101880968,7.0768637759786035
313.146,313.146,13.578982759318272,18.14516436299207,7.241973495626442
313.153,313.153,13.601245446122336,18.393621585381943,7.331383364324877
313.16,313.16,13.760879278227721,18.753700949205495,7.3413688846953296
313.166,313.166,14.066290868860209,19.251326159813363,7.401145362936355
313.173,313.173,14.508795376687237,19.897142166973804,7.510880964482362
313.18,313.18,15.064192328933649,20.685929508182674,7.644762860867201
313.187,313.187,15.696174820254383,21.597933790342875,7.775075871751538
313.193,313.193,16.360689247160312,22.599561356860065,7.8747408957786345
313.2,313.2,17.006439857661775,23.639481206401754,7.917222806605916
313.207,313.207,17.569518811271926,24.640306619672653,7.95775300014689
313.214,313.214,17.968812461604447,25.49622959763487,8.099625397066852
313.22,313.22,18.114510583087558,26.092317246149694,8.339465383230444
313.227,313.227,18.29202712874215,26.34399328966813,8.641378544270438
313.234,313.234,18.807748643317275,26.459284943936105,8.941351195659776
313.241,313.241,19.61176204232033,26.899111262665233,9.165938738258504
313.247,313.247,20.610223737482052,27.572154246786084,9.254364661483432
313.254,313.254,21.694789745506792,28.35814526732111,9.334203613585338
313.261,313.261,22.762274710578673,29.12938247223105,9.579674788298192
313.268,313.268,23.72648408207849,29.77317849282178,9.956958901985816
313.274,313.274,24.528016913534728,30.209555886928733,10.411182096363273
313.281,313.281,25.140333445536204,30.39975064441165,10.878732340959152
313.288,313.288,25.568183467696173,30.453901536709242,11.298024728272095
313.295,313.295,25.839605159016454,30.717377998488868,11.61721770052802
313.301,313.301,25.995139951710456,31.133310430909216,11.79953567276015
313.308,313.308,26.07423427893689,31.63501846329871,11.8272097175807
313.315,313.315,26.099735422095847,32.15626061262137,11.95095695774048
313.322,313.322,26.131357154082202,32.63849324342029,12.203465524625772
313.328,313.328,26.246992063803084,33.0355280745481,12.548127714340067
313.335,313.335,26.482538050057418,33.31772706075042,12.942436945433695
313.342,313.342,26.863978992244558,33.47671801759602,13.346257387913145
313.349,313.349,27.390038474812197,33.52835201305195,13.72808315486041
313.355,313.355,28.02114481310053,33.5448869990831,14.068359270432216
313.362,313.362,28.678650547705352,33.5709206074376,14.360226300488474
313.369,313.369,29.255515581768837,33.60816910449706,14.60823865266191
313.376,313.376,29.635286254128932,33.78839893911973,14.825285589104052
313.382,313.382,29.71387042734711,34.18831350550227,15.027716315324865
313.389,313.389,30.008816207725868,34.87006053725051,15.229138512353654
313.396,313.396,30.70623654522351,35.87141667188442,15.434798657805127
313.403,313.403,31.79129431492093,37.20007347743421,15.638817605102053
313.409,313.409,33.21314194607248,38.831311544965274,15.824478537833237
313.416,313.416,34.893976269471914,40.707878854198896,15.96595273228399
313.423,313.423,36.73586825201259,42.74095562435901,16.03136319014003
313.43,313.43,38.63295041901421,44.81084338147174,16.070680738843482
313.436,313.436,40.48193773166787,46.761944820943675,16.222320857640153
313.443,313.443,42.15136330610546,48.39062730516087,16.460998688872806
313.45,313.45,43.45329028069543,49.46698062339813,16.739603053547494
313.457,313.457,44.2261380142839,49.827211068684534,17.013883504250074
313.463,313.463,44.45397747341806,50.18914923737391,17.258235223326146
313.47,313.47,44.64773023250486,51.122420563949056,17.465261187485886
313.477,313.477,45.09636226109987,52.387917651199764,17.63785418527154
313.484,313.484,45.65744174130134,53.72786453900871,17.78293196503974
313.49,313.49,46.23511984062908,54.91811322048151,17.908350263072226
313.497,313.497,46.78182703477781,55.80208556436097,18.02155943406317
313.504,313.504,47.28730857354397,56.3027460657525,18.128764926655197
313.511,313.511,47.76213187839587,56.41762478639066,18.233358281070533
313.517,313.517,48.22450516802539,56.63154631886478,18.334724884583895
313.524,313.524,48.69250519880553,57.07995870421254,18.429267749740614
313.531,313.531,49.17873366359653,57.65584478678909,18.51243458759626
313.538,313.538,49.686182727133634,58.259697381903116,18.579356310118516
313.544,313.544,50.207238002256474,58.81160861519319,18.624332997056538
313.551,313.551,50.726537088326104,59.25706221563949,18.641217513893707
313.558,313.558,51.22556671795329,59.56891915760704,18.657118554466457
313.565,313.565,51.687061419592254,59.745769192573746,18.70692721017305
313.571,313.571,52.09846046021935,59.80665743192157,18.7872890852679
313.578,313.578,52.45369861125664,59.82991300842436,18.891013848692705
313.585,313.585,52.75310070361055,59.90095756758827,19.00850532998304
313.592,313.592,53.002044818599096,59.98594563763808,19.128978615412667
313.598,313.598,53.2091032262406,60.058417529174385,19.241154932359663
313.605,313.605,53.38431898131328,60.101798712085326,19.33392337039294
313.612,313.612,53.53843042240495,60.109557451656734,19.397476510029936
313.619,313.619,53.682987989231975,60.1356780279385,19.42481040455933
313.625,313.625,53.8301682398792,60.1882987535679,19.43659506715862
313.632,313.632,53.99148521405589,60.25696556655384,19.48572178590989
313.639,313.639,54.17587380916349,60.3303863704702,19.566137706103714
313.646,313.646,54.38826701350468,60.39838645594396,19.668747734500002
313.652,313.652,54.62943391486533,60.453431005457375,19.78298459770714
313.659,313.659,54.89688675651835,60.491428796772574,19.898139412448316
313.666,313.666,55.18601331857105,60.51171170934144,20.004206983225167
313.673,313.673,55.490863441759224,60.51638585591163,20.092380636137023
313.679,313.679,55.80471777268428,60.52338906433249,20.15542351815616
313.686,313.686,56.12076941359685,60.53723743451046,20.1880550228544
313.693,313.693,56.432866701371914,60.55285690832728,20.188710960597803
313.7,313.7,56.7360685263653,60.565351005317424,20.222689072555387
313.706,313.706,57.027020532229486,60.570455833080175,20.28697398359342
313.713,313.713,57.304159337711674,60.575712398387466,20.3757363242606
313.72,313.72,57.56744359941188,60.59235095167147,20.481016296655532
313.727,313.727,57.81755965956022,60.619162913688704,20.593648689679316
313.733,313.733,58.055190745196676,60.65297756021697,20.704258811770703
313.74,313.74,58.280868518275014,60.68932970010309,20.80430937658372
313.747,313.747,58.49518468513509,60.72325620109874,20.887137761582252
313.754,313.754,58.6988867769015,60.750002702569255,20.948738376648905
313.76,313.76,58.89275480780001,60.765571353563075,20.98797613746267
313.767,313.767,59.07739186502435,60.767125366335605,21.006048407332976
313.774,313.774,59.253136047765786,60.780999824777545,21.006717015837946
313.781,313.781,59.42024212913719,60.81020602867429,21.023525899262197
313.787,313.787,59.579086129989896,60.853285968481764,21.054054064882358
313.794,313.794,59.73004934584132,60.90784384950677,21.095580694547284
313.801,313.801,59.87326537531849,60.97113229558787,21.14427482860687
313.808,313.808,60.00872520270875,61.04051315369608,21.19491294498231
313.814,313.814,60.13681102925699,61.11356682703444,21.24163883063031
313.821,313.821,60.258761870909055,61.188000458487764,21.279443996834456
313.828,313.828,60.37665960611503,61.26173302490457,21.305589846619288
313.835,313.835,60.49298836392902,61.33325437639181,21.320399128895367
313.841,313.841,60.60998309620264,61.40196057577433,21.3272277653912
313.848,313.848,60.72898725337679,61.46820093131137,21.331657722910325
313.855,313.855,60.85005780220555,61.53311690919412,21.340096033769022
313.862,313.862,60.9719544681166,61.598436306411784,21.358141388009862
313.868,313.868,61.09243756438273,61.66619379006965,21.389180819007507
313.875,313.875,61.20861987562754,61.73839800979975,21.43356327168452
313.882,313.882,61.317228172813586,61.81684304128195,21.488496010536213
313.889,313.889,61.41485150248493,61.90310985583555,21.54869060268165
313.895,313.895,61.498266363268776,61.99851126712432,21.60762904235858
313.902,313.902,61.564876728861414,62.10378841323804,21.659042927572468
313.909,313.909,61.61322691665509,62.21872342398841,21.69808117653226
313.916,313.916,61.643385774694515,62.341987590583834,21.721895673232797
313.922,313.922,61.65695613100897,62.471357911403054,21.729731300422458
313.929,313.929,61.657257621003595,62.60421450719897,21.736728164265383
313.936,313.936,61.66826221952195,62.73813876544361,21.755831565731413
313.943,313.943,61.68699670736396,62.871430635453976,21.7831234601021
313.949,313.949,61.71114676602343,63.00341783283833,21.813923653663498
313.956,313.956,61.73930103996469,63.13449853309843,21.843227713496667
313.963,313.963,61.77100554014771,63.26590687338271,21.86613485379923
313.97,313.97,61.80659028819947,63.39925608330816,21.878298958825198
313.976,313.976,61.846700396453954,63.53600589455685,21.880195215146323
313.983,313.983,61.89163169129404,63.67705181418601,21.898030432639175
313.99,313.99,61.94084531162606,63.82259974305424,21.932025246480876
313.997,313.997,61.99305561581342,63.97236212748947,21.980825568648815
314.003,314.003,62.046859163885344,64.1259300674342,22.041888124246917
314.01,314.01,62.101421780516446,64.28304158947317,22.111986457997077
314.017,314.017,62.15674868877091,64.44355824557667,22.18760780492099
314.024,314.024,62.21349027895087,64.6072761900904,22.265172578618458
314.03,314.03,62.27264414222955,64.77385359107612,22.34119756273462
314.037,314.037,62.335469989727756,64.9429477801864,22.412552627975288
314.044,314.044,62.40354165727609,65.11445855278356,22.47686600641004
314.051,314.051,62.478716086721434,65.28880141021578,22.533031948390622
314.057,314.057,62.563066317495554,65.4671589407662,22.581612990726523
314.064,314.064,62.65889583366067,65.6515249406482,22.624746951628122
314.071,314.071,62.76859864158432,65.8443560968233,22.665260965914634
314.078,314.078,62.89413189507648,66.04795896425267,22.705153077837945
314.084,314.084,63.03649175496725,66.26393171812245,22.744112843702556
314.091,314.091,63.19572202931979,66.49278969677097,22.77890600218127
314.098,314.098,63.37123662850173,66.73381859035943,22.803984163573798
314.105,314.105,63.56195573599329,66.98547967528638,22.812829903412858
314.111,314.111,63.76659360996211,67.24660783022823,22.826449192516705
314.118,314.118,63.98468372604655,67.51776327162744,22.86757056890338
314.125,314.125,64.21745976551728,67.80174834854773,22.939227313064983
314.132,314.132,64.46843997279548,68.10286976803329,23.041729212404142
314.138,314.138,64.74392140485372,68.42480646466277,23.172255648811053
314.145,314.145,65.04920461747179,68.76831394661575,23.324848097037485
314.152,314.152,65.38251987894895,69.13070760393032,23.490467031542256
314.159,314.159,65.73524656862905,69.50487062574453,23.656656990541528
314.165,314.165,66.09237099237404,69.87503461628064,23.807502230551822
314.172,314.172,66.42638093993065,70.21375964687968,23.925116857202603
314.179,314.179,66.69585630024393,70.48459043673866,23.992237309900386
314.186,314.186,66.85392348798075,70.64805511609038,23.99454169782748
314.192,314.192,66.85755440704747,70.66801418427063,24.066631322138456
314.199,314.199,67.04108444954824,70.81838345589658,24.216260967695277
314.206,314.206,67.42779350823488,71.1517560867632,24.43883269966438
314.213,314.213,68.01125736826982,71.66375093939415,24.72190748287776
314.219,314.219,68.76091652629364,72.33249903593504,25.046748400034772
314.226,314.226,69.62571249311489,73.12132418143791,25.391069336068433
314.233,314.233,70.54183618808989,73.98416043530557,25.73214207654493
314.24,314.24,71.44258709585905,74.87172066032592,26.049434736658974
314.246,314.246,72.26734154949159,75.73430345536757,26.32519730302463
314.253,314.253,72.96298715611567,76.5139366794325,26.54087254332077
314.26,314.26,73.4729153227908,77.12515400293577,26.672260240363162
314.267,314.267,73.72569570614824,77.44870522313116,26.691958030166234
314.273,314.273,73.80587704811118,77.53021642334667,26.80285571594043
314.28,314.28,74.26550978333276,78.07565492415587,27.041430615850047
314.287,314.287,75.08990217375226,79.05898718496098,27.375790842749748
314.294,314.294,76.19847507834906,80.38060786173179,27.74919696260901
314.3,314.3,77.46822980774226,81.89104531271256,28.095040133127913
314.307,314.307,78.76519592485515,83.41968412962208,28.35446791739913
314.314,314.314,79.96682416905858,84.80843090040378,28.488968066938277
314.321,314.321,80.97455255193933,85.94003011646713,28.49205338399273
314.327,314.327,81.72212911856653,86.75251365846368,28.620488288581516
314.334,314.334,82.1807676715548,87.2398160346392,28.843025304833592
314.341,314.341,82.35941717050768,87.44221578748795,29.11770674565971
314.348,314.348,82.41937208410774,87.45344335412025,29.400204130943877
314.354,314.354,82.65545500884107,87.5920041735785,29.650782174983483
314.361,314.361,83.00054842664132,87.76991026790785,29.83887879381742
314.368,314.368,83.39912173598209,87.90886542260381,29.944920497888056
314.375,314.375,83.81624359840957,87.95107304669907,29.960460125071954
314.381,314.381,84.23600919526938,88.03433706259585,30.03329813896606
314.388,314.388,84.65092748556118,88.23943744729381,30.183523401862086
314.395,314.395,85.0475973734866,88.53277465977422,30.39448248787486
314.402,314.402,85.39606231141273,88.85667791971235,30.647628337556174
314.408,314.408,85.64861737113837,89.13784518813132,30.925425816657636
314.415,314.415,85.74841208554017,89.29887619645471,31.212476345316777
314.422,314.422,85.85358899907587,89.32616793467479,31.49499443213696
314.429,314.429,86.19804627354463,89.58884581153353,31.75980321274601
314.435,314.435,86.78949899333368,90.10455006003872,31.9942502451963
314.442,314.442,87.60826346811587,90.85593994664008,32.189398367665866
314.449,314.449,88.60918988562442,91.78444727560284,32.34620941794006
314.456,314.456,89.70270298965279,92.78180620486818,32.47533909826472
314.462,314.462,90.72109194694531,93.68988334423976,32.586129152240275
314.469,314.469,91.4463422081699,94.33266762435643,32.676294578449856
314.476,314.476,91.72597242695984,94.57738621429934,32.730421287360755
314.483,314.483,91.8911951545528,94.77875354222131,32.735618392174295
314.489,314.489,92.37998649715828,95.39403172852836,32.82133355532581
314.496,314.496,93.0378848929129,96.33449440709687,32.995756839759956
314.503,314.503,93.72746464157022,97.47540677867542,33.24814276905225
314.51,314.51,94.34084580440145,98.6785030706381,33.54982485863508
314.516,314.516,94.80483877031833,99.8187621766931,33.86011899016185
314.523,314.523,95.08195763648087,100.80643813275594,34.135192887253595
314.53,314.53,95.16467523085758,101.59627839023844,34.337419349792526
314.537,314.537,95.26005193094616,102.1830988249047,34.44190158308381
314.543,314.543,95.49749756127325,102.58877313504253,34.44395983424321
314.55,314.55,95.82585022116854,102.84709458855886,34.543724534295606
314.557,314.557,96.18484001073898,102.99133777082425,34.71566320778648
314.564,314.564,96.51270173409158,103.04689100459416,34.921835001097904
314.57,314.57,96.75344328402834,103.06583501852819,35.11880594991207
314.577,314.577,96.86115748333592,103.1575901396699,35.265713794655774
314.584,314.584,96.91999644434097,103.33204247101936,35.33194559036374
314.591,314.591,97.16464891543895,103.6063405674069,35.360921878918916
314.597,314.597,97.59895683781295,103.99786634832071,35.480815583372255
314.604,314.604,98.21045026886286,104.51666224984747,35.669810545597294
314.611,314.611,98.96941630722861,105.15963778184903,35.893810221076215
314.618,314.618,99.83006755380931,105.90809697419351,36.11408392394009
314.624,314.624,100.73536999902541,106.7289333988496,36.29523477622934
314.631,314.631,101.62452086715581,107.57898859672304,36.41171598612184
314.638,314.638,102.44137756480984,108.41164866137036,36.45156990999951
314.645,314.645,103.14225313936568,109.1841610232171,36.48635352355549
314.651,314.651,103.70131332261442,109.86349463426778,36.58252336768274
314.658,314.658,104.11210064116798,110.42903587962624,36.72034344532244
314.665,314.665,104.38490134664752,110.87228593431486,36.87919300428626
314.672,314.672,104.54154496583264,111.1947403608228,37.04302521042966
314.678,314.678,104.60870213274431,111.40283101413189,37.20555397797818
314.685,314.685,104.61080900982844,111.4961301146235,37.37413847630363
314.692,314.692,104.6851977737889,111.54025376298786,37.5684065795613
314.699,314.699,104.86681829927095,111.7678266801708,37.809373830843334
314.705,314.705,105.20447343274971,112.22339404410026,38.10214309706407
314.712,314.712,105.723535832576,112.91724628809061,38.424396137791646
314.719,314.719,106.40309592343635,113.81249520251397,38.73011694968166
314.726,314.726,107.18407661766632,114.83528538013508,38.96548558108368
314.732,314.732,107.99166820645306,115.8935495086916,39.08698306612105
314.739,314.739,108.75282942182443,116.89445846447195,39.10008368996235
314.746,314.746,109.40642721791129,117.75869300401392,39.24197968490123
314.753,314.753,109.9104305080616,118.43115491338325,39.48458537837738
314.759,314.759,110.24673466819425,118.88666831868008,39.78646594667343
314.766,314.766,110.42134978633902,119.12960673188672,40.1025431264229
314.773,314.773,110.45949292600596,119.18846025398894,40.391892547563295
314.78,314.78,110.52093622640433,119.26926381341265,40.62291056373387
314.786,314.786,110.64065507129918,119.43830936334733,40.77626146767434
314.793,314.793,110.77862953242027,119.6454047928553,40.84588618355646
314.8,314.8,110.90052902104912,119.84794284848124,40.85352830476338
314.807,314.807,110.98070543004762,120.01548358455757,40.921464648708145
314.813,314.813,111.00391949621834,120.13226722786779,41.02547719201035
314.82,314.82,111.04114120808471,120.19416378164696,41.13880924518043
314.827,314.827,111.13355979356865,120.1997805080958,41.236725857256815
314.834,314.834,111.27692664177069,120.25345690195506,41.29912420302893
314.84,314.84,111.47031998351763,120.36440847250199,41.31198689512057
314.847,314.847,111.70342252665485,120.51906899938484,41.35470879213472
314.854,314.854,111.94873165759194,120.69748353315998,41.44936677620371
314.861,314.861,112.17257020271674,120.88459516502776,41.58256424576864
314.867,314.867,112.35051330783564,121.07591521910723,41.732557894134615
314.874,314.874,112.4735342176531,121.27663568997234,41.87107101257794
314.881,314.881,112.54695933523449,121.49929117943927,41.966621866854815
314.888,314.888,112.58361164885133,121.75950702248211,41.99089015806607
314.894,314.894,112.59061808670397,122.06947547099169,42.05583108054296
314.901,314.901,112.62327884647165,122.4333415412425,42.213489823927425
314.908,314.908,112.72415673255384,122.84601265985037,42.453702206834166
314.915,314.915,112.93206462204536,123.2938198021419,42.75656370828409
314.921,314.921,113.28189561757455,123.75658717560822,43.096895347067
314.928,314.928,113.7887401859237,124.21078049854609,43.44764475357142
314.935,314.935,114.4374405537515,124.63222892884559,43.782136319714354
314.942,314.942,115.1842249555792,124.99761079623522,44.07586944627597
314.948,314.948,115.96938283788637,125.2855489835184,44.30849343823942
314.955,314.955,116.7329326882073,125.47807930581612,44.46583312733318
314.962,314.962,117.42607483414926,125.56223495452087,44.54135688251274
314.969,314.969,118.01610265626489,125.59314698372097,44.54607212271349
314.975,314.975,118.48589182743665,125.7388611110856,44.6220345513009
314.982,314.982,118.83044214446946,125.99237652388756,44.75455655568541
314.989,314.989,119.05299084032642,126.34116227825886,44.92557759218061
314.996,314.996,119.16219859299757,126.76906294136629,45.116078856058465
315.002,315.002,119.1704906004557,127.25855099153752,45.308225922805136
315.009,315.009,119.24805468958097,127.79301115284143,45.4870814179719
315.016,315.016,119.39489805186147,128.35866349722698,45.64181835850778
315.023,315.023,119.59419994969103,128.94576237694818,45.76637590086751
315.029,315.029,119.83011093411571,129.548991386477,45.85954338081282
315.036,315.036,120.08851939501538,130.1672037979532,45.92452840543511
315.043,315.043,120.35724700328984,130.8026337501258,45.96810838986712
315.05,315.05,120.62586336352382,131.45963337333475,45.99946884346147
315.056,315.056,120.88528535135826,132.14314254687525,46.02887259502492
315.063,315.063,121.12728635987483,132.85726554346164,46.06632789062292
315.07,315.07,121.34425107517947,133.6042118154037,46.120287615650675
315.077,315.077,121.5296049192175,134.3836786557298,46.19634591105647
315.083,315.083,121.67899496420677,135.19264816035238,46.296090433587814
315.09,315.09,121.79178073906485,136.02549572634513,46.41645889696068
315.097,315.097,121.87215697185569,136.87440353869815,46.54993517151289
315.104,315.104,121.92934375279076,137.73015453093737,46.6856836963949
315.11,315.11,121.97666215123927,138.5832126737393,46.81132718041471
315.117,315.117,122.02983725429986,139.42489365282523,46.91482154003642
315.124,315.124,122.10512007216188,140.24852455804898,46.985974385276855
315.131,315.131,122.21763499959742,141.05049154480375,47.01740906323927
315.137,315.137,122.38011419761669,141.83091045116396,47.02981572575931
315.144,315.144,122.60203686639643,142.59349921032302,47.08685766066221
315.151,315.151,122.88903920643389,143.34439842309732,47.18615032960675
315.158,315.158,123.24248041045385,144.09020441872647,47.32249539680599
315.164,315.164,123.65926665945625,144.8358172061114,47.488465531314226
315.171,315.171,124.13202864346572,145.58257961308777,47.67513791457714
315.178,315.178,124.64955594654859,146.32685550642535,47.8728589173883
315.185,315.185,125.19736359795384,147.05901976234685,48.07197403926276
315.191,315.191,125.75829158741908,147.7630409553119,48.26358641190946
315.198,315.198,126.31309703435832,148.4171381456487,48.44034667914946
315.205,315.205,126.84115822590927,148.99575924924423,48.59696823431029
315.212,315.212,127.32128463469449,149.47252859555815,48.730117886938025
315.218,315.218,127.7323422115559,149.82349580446086,48.83772469331151
315.225,315.225,128.05368799562297,150.02996917388637,48.918109868872016
315.232,315.232,128.26591559813468,150.08036475823394,48.96939928512189
315.239,315.239,128.35199645249486,150.1896774643493,48.98944204053995
315.245,315.245,128.405743067353,150.45428760151722,49.00278588334042
315.252,315.252,128.60887868522525,150.86270218400728,49.051328068608186
315.259,315.259,128.96604787103908,151.39868548539144,49.136586995440986
315.266,315.266,129.47665660924162,152.04427867817247,49.260212269084484
315.272,315.272,130.1351184706388,152.78204184124024,49.42424779576169
315.279,315.279,130.9307809982843,153.59544205351654,49.63075222548246
315.286,315.286,131.84695056557393,154.46764671253206,49.88082799833992
315.293,315.293,132.8594912182447,155.38017637257502,50.17335290699126
315.299,315.299,133.93620758666913,156.31270807052067,50.50380122606888
315.306,315.306,135.03809393951866,157.2442243213254,50.86362064226304
315.313,315.313,136.1225946373081,158.15485150759076,51.2405234274352
315.32,315.32,137.14796016611598,159.02754509685602,51.6197399506054
315.326,315.326,138.07740113310123,159.84908939965763,51.985909545606596
315.333,315.333,138.88217697371218,160.61031900433645,52.325036823674395
315.34,315.34,139.54326880029365,161.30571796945443,52.62595568524567
315.347,315.347,140.0515772380203,161.93262188420815,52.881037385612075
315.353,315.353,140.40703141027603,162.49031672816983,53.086284662934055
315.36,315.36,140.61736351654108,162.97928494032135,53.24114809782496
315.367,315.367,140.69713971019357,163.4006641957869,53.348287102747044
315.374,315.374,140.72727270087282,163.75595187700878,53.41329094873737
315.38,315.38,140.84177557370083,164.04703015633615,53.44421066299979
315.387,315.387,141.0123363671114,164.2764403409378,53.4506807615938
315.394,315.394,141.21074090568575,164.44767142922163,53.45883606265703
315.401,315.401,141.4120349025351,164.56526579257215,53.47330546433071
315.407,315.407,141.59751509823218,164.6346774597023,53.48880435589482
315.414,315.414,141.7570056144829,164.66193314175194,53.50395855744112
315.421,315.421,141.89004564835355,164.67065716305797,53.52149157007498
315.428,315.428,142.00595391210464,164.709623201716,53.54796196680379
315.434,315.434,142.12291302720084,164.7748166821749,53.59335042617247
315.441,315.441,142.26647923224363,164.86653843024084,53.6705098540811
315.448,315.448,142.46813058934757,164.99280937667058,53.793963202379814
315.455,315.455,142.76368539397868,165.17120712832138,53.977567793784964
315.461,315.461,143.1901390657354,165.4264246234316,54.23143361325346
315.468,315.468,143.78014538207802,165.78343024165568,54.55904198725654
315.475,315.475,144.55592435507495,166.2592177048505,54.955326528330474
315.482,315.482,145.52506945545818,166.85636334351506,55.40629031342317
315.488,315.488,146.67875376627399,167.55948342160644,55.890622782280865
315.495,315.495,147.9919286296372,168.33467282032393,56.38327257033092
315.502,315.502,149.42577100182382,169.13228833059324,56.86007784247166
315.509,315.509,150.93129283976324,169.89237147439474,57.30194712349742
315.515,315.515,152.45149187257758,170.55028189201505,57.697227676319415
315.522,315.522,153.92223699104852,171.0407022624871,58.041862455602995
315.529,315.529,155.27532597928774,171.3007888179936,58.33816079290416
315.536,315.536,156.44463378160745,171.32677729852,58.59322557818624
315.542,315.542,157.37825587648567,171.68213839603865,58.82112371204683
315.549,315.549,158.0453437286901,172.405409941698,59.05110111787199
315.556,315.556,158.38744771412036,173.56751379981503,59.32391849145673
315.563,315.563,158.54066654717647,175.30235055939593,59.663337758723145
315.569,315.569,159.43751152076004,177.74581028337943,60.05206454427285
315.576,315.576,161.20619640977768,180.89142298574288,60.437518226198115
315.583,315.583,163.68924219240722,184.50837330115817,60.753737903650965
315.59,315.59,166.4775495834957,188.20557317806887,60.94412422812159
315.596,315.596,169.08025003589833,191.56340391848292,60.97877534220221
315.603,315.603,171.08511228798346,194.23980220408555,61.09798997240707
315.61,315.61,172.25195493986735,196.02885541662826,61.34344199833671
315.617,315.617,172.54260861564327,196.87611786243872,61.67149824926649
315.623,315.623,172.99346663360933,196.8934809408911,62.03108870746869
315.63,315.63,173.94969380134236,197.60617690833473,62.36981561154429
315.637,315.637,175.15078764746033,198.79598679298167,62.63835958542297
315.644,315.644,176.36738548760837,200.2329321566019,62.794647550553705
315.65,315.65,177.43056900005482,201.70394605085758,62.809258105485924
315.657,315.657,178.24137423751776,203.03520446473058,62.9468355857742
315.664,315.664,178.7684483219651,204.10926915081325,63.224217785321436
315.671,315.671,179.0385782158181,204.87341145592748,63.60709394001914
315.677,315.677,179.11923998940858,205.3355774523264,64.04466793463322
315.684,315.684,179.1452453237841,205.5514497795772,64.4776394896025
315.691,315.691,179.2062224802567,205.6090265885311,64.84718496379674
315.698,315.698,179.26013406344455,205.61233482037832,65.1034995400129
315.704,315.704,179.30010254309755,205.66355565984335,65.21256331917972
315.711,315.711,179.34722011517988,205.8463672476437,65.26490545831325
315.718,315.718,179.43712397555444,206.21546362410447,65.47214987868458
315.725,315.725,179.60795335345932,206.79451801067796,65.80969311808394
315.731,315.731,179.89221590708362,207.58063803917213,66.23998880145028
315.738,315.738,180.31147261517484,208.5515892312475,66.71900868916912
315.745,315.745,180.872684516821,209.67310724953893,67.20258655782553
315.752,315.752,181.56588017156565,210.90501164483143,67.6512668514589
315.758,315.758,182.36380480758345,212.20535988025506,68.03293642245556
315.765,315.765,183.2238522495322,213.531870601647,68.32328245529277
315.772,315.772,184.08966910999814,214.83799255241078,68.50342154524567
315.779,315.779,184.8873824525774,216.0603230897915,68.55579175359765
315.785,315.785,185.51845166752156,217.10591265385844,68.64531403967928
315.792,315.792,185.86761193823975,217.86320976344945,68.87293298822607
315.799,315.799,185.89363703105334,218.24315248411892,69.2012436824449
315.806,315.806,186.31825112999485,218.26790376343257,69.56054117538821
315.812,315.812,187.08164331869685,218.65598961530875,69.86821497219293
315.819,315.819,188.07019750848278,219.31545818376523,70.05221542216105
315.826,315.826,189.15472360732295,220.12604068182114,70.06755661927055
315.833,315.833,190.21388923153495,220.95903714087254,70.23172988749815
315.839,315.839,191.14833360634842,221.69687601695227,70.55211036143507
315.846,315.846,191.89165441126613,222.25076841296053,70.97568099684827
315.853,315.853,192.41469439579868,222.57156338656466,71.42910922344907
315.86,315.86,192.72200595732724,222.65136703655892,71.83386963066407
315.866,315.866,192.8449159319867,222.78556035892785,72.1236340623677
315.873,315.873,192.855615959728,223.08343847002178,72.25786052575849
315.88,315.88,192.94074094713392,223.48476544523388,72.28749493997762
315.887,315.887,193.04926038784646,223.93157512805655,72.45807236340858
315.893,315.893,193.15236142671003,224.37791868461952,72.72297628583567
315.9,315.9,193.24834488680685,224.7968069194038,73.02360860608749
315.907,315.907,193.35968044471764,225.18297332147225,73.30207343279038
315.914,315.914,193.52415000014744,225.55044496097344,73.51195857861781
315.92,315.92,193.78226251674306,225.92632071751768,73.62493612490762
315.927,315.927,194.16574544219785,226.34311737768465,73.63252766087074
315.934,315.934,194.69033623539997,226.83119023388227,73.7210984528312
315.941,315.941,195.35256212761266,227.4121088388881,73.88368233143899
315.947,315.947,196.12937601061915,228.0938276654879,74.09141979164036
315.954,315.954,196.98098474304655,228.86823878006064,74.31469890117421
315.961,315.961,197.85729402622925,229.7107682776856,74.52666045661687
315.968,315.968,198.70430427775253,230.58015343693754,74.70333277287754
315.974,315.974,199.463962043499,231.41533225714298,74.82230467033895
315.981,315.981,200.0678408273899,232.13192258008536,74.86521074654968
315.988,315.988,200.4371085721784,232.63153414641047,74.90225023293293
315.995,315.995,200.5014683099737,232.83026802990267,74.99639083602321
316.001,316.001,200.7725411393192,232.97191584193595,75.09687427463498
316.008,316.008,201.35115057286748,233.43792181249538,75.1387986421034
316.015,316.015,202.15963629654559,234.16251643823196,75.21376577005599
316.022,316.022,203.0944861127427,235.04319803387168,75.43948076821533
316.028,316.028,204.04681592062605,235.95990558114715,75.81574887604788
316.035,316.035,204.91628459176687,236.79913112342396,76.30888479346108
316.042,316.042,205.62380866812424,237.47460164673748,76.86119750493984
316.049,316.049,206.12213769076038,237.9376674893627,77.40539709940737
316.055,316.055,206.39865007003303,238.17882036431334,77.87871111424683
316.062,316.062,206.4682629601615,238.22455601750528,78.23268709201156
316.069,316.069,206.57704175842022,238.31836771443864,78.43796614025028
316.076,316.076,206.83766348435893,238.47641059493998,78.48608170250859
316.082,316.082,207.23656744678374,238.61625829771657,78.58280452651529
316.089,316.089,207.7733672840033,238.6625847566225,78.79435254022539
316.096,316.096,208.44802330869194,238.76337322792503,79.07958729430419
316.103,316.103,209.24101312278282,239.03138272023176,79.39468986782387
316.109,316.109,210.0979623858268,239.44732015159678,79.70116446924264
316.116,316.116,210.92807466530738,239.9531182519997,79.97161426272224
316.123,316.123,211.61734573312071,240.45846120641818,80.19231420318798
316.13,316.13,212.04962513369682,240.85318211456212,80.36240065343186
316.136,316.136,212.12725280661564,241.02468772823158,80.49029120753009
316.143,316.143,212.4681484994598,241.1732959118591,80.58823163178086
316.15,316.15,213.2499250162629,241.7095688260465,80.66605074398028
316.157,316.157,214.4528579939497,242.66369740896198,80.72597720546175
316.163,316.163,216.0182639867095,244.0236579402085,80.76017936337695
316.17,316.17,217.85356653616947,245.7321073379631,80.76906380488715
316.177,316.177,219.8417188445212,247.68735371345284,80.84437072403571
316.184,316.184,221.8563448169814,249.74934655160564,81.00570722974591
316.19,316.19,223.7623339908608,251.74452093163097,81.25726613170136
316.197,316.197,225.36479674138025,253.46258544747064,81.59595689430886
316.204,316.204,226.36566867741047,254.66377620107008,82.03837674610578
316.211,316.211,226.47692774097948,255.14004426768756,82.62649833630779
316.217,316.217,227.3130219041859,255.46700813514428,83.39868877450827
316.224,316.224,228.85219445748854,256.5043703576908,84.35662953433982
316.231,316.231,230.69112998586093,258.0341071698962,85.45325816725202
316.238,316.238,232.44894420904527,259.78567054124835,86.60414026050161
316.244,316.244,233.86437430714204,261.49526023741356,87.71127322431684
316.251,316.251,234.8165193666327,262.95042764853827,88.68529389374231
316.258,316.258,235.3050855164878,264.01713472189925,89.45815109754999
316.265,316.265,235.41348766351777,264.6468019381849,89.986356250635
316.271,316.271,235.55766283015612,264.8667119662424,90.25015691202856
316.278,316.278,235.81694363405768,264.9746151296602,90.25297283294542
316.285,316.285,236.06937890607801,265.29960560674175,90.48582404201771
316.292,316.292,236.22436864799096,265.72568515496135,90.91171982578416
316.298,316.298,236.2295373796943,266.14926528188226,91.47826980809266
316.305,316.305,236.39009340279,266.49106150561977,92.13144318615825
316.312,316.312,236.70410926603117,266.7026915563318,92.82242968136912
316.319,316.319,237.1414933466844,266.7676082681173,93.51223965993508
316.325,316.325,237.66335399137571,266.8386861501323,94.1734534704813
316.332,316.332,238.22888066324515,267.01620674139,94.78902400802542
316.339,316.339,238.80027808579422,267.2615484341809,95.34892625603355
316.346,316.346,239.3462729637416,267.53565871315567,95.84629170476573
316.352,316.352,239.84455556451212,267.8051302143289,96.27479628156362
316.359,316.359,240.28302329772345,268.0456413820827,96.62839620180651
316.366,316.366,240.659491808001,268.2432969873538,96.9033745930016
316.373,316.373,240.97965881972624,268.3942779844201,97.10138857405559
316.379,316.379,241.2537903354392,268.5031406244731,97.23152258268458
316.386,316.386,241.493435505399,268.580178921911,97.30998328489368
316.393,316.393,241.70912854908684,268.6384148266186,97.35742790458978
316.4,316.4,241.90900197202922,268.6909012330296,97.39491764779817
316.406,316.406,242.09802205418478,268.74878912545574,97.43988105519038
316.413,316.413,242.277932356868,268.8202008616334,97.5033432149436
316.42,316.42,242.44802130713154,268.90975337670517,97.58906955293904
316.427,316.427,242.60639877436267,269.0185952946703,97.69447687664805
316.433,316.433,242.75117609361357,269.1448618694787,97.81261787773096
316.44,316.44,242.88125833073317,269.2843897022668,97.93446895578515
316.447,316.447,242.99691471583574,269.4315619029905,98.05101346829123
316.454,316.454,243.10023950872565,269.58029545757915,98.15495028133769
316.46,316.46,243.19520074433902,269.7250564702181,98.24198353232819
316.467,316.467,243.2869221899884,269.86159316726946,98.31148330083242
316.474,316.474,243.3804036760158,269.9872702973916,98.36625418016045
316.481,316.481,243.47936351836677,270.10111167037115,98.41148645632342
316.487,316.487,243.58571033576652,270.20360034816025,98.45332771549924
316.494,316.494,243.69963754601199,270.29629397466493,98.49757918312037
316.501,316.501,243.82000018059864,270.3814113122943,98.54888853313919
316.508,316.508,243.9445358725945,270.4615039350853,98.61050024023527
316.514,316.514,244.0696633184047,270.5392402276852,98.68419656493076
316.521,316.521,244.19025981163585,270.61720622935394,98.76997534274135
316.528,316.528,244.30030992024157,270.6975571478507,98.8654968695534
316.535,316.535,244.39446024792886,270.78164809433997,98.96591251165232
316.541,316.541,244.4692366980465,270.8700403815065,99.06468278352337
316.548,316.548,244.52311498180157,270.9628873568884,99.15529911421221
316.555,316.555,244.5561371495866,271.0601813711657,99.23316194837423
316.562,316.562,244.56989524693373,271.1615645624191,99.29681875889389
316.568,316.568,244.5721887891149,271.2660225068825,99.3480730625795
316.575,316.575,244.58611993385318,271.37188411722155,99.39091957388935
316.582,316.582,244.60688698284667,271.4771669194038,99.42980715811905
316.589,316.589,244.6301074673164,271.58006157302395,99.46795549046338
316.595,316.595,244.6524769783142,271.6793467185876,99.50626640011734
316.602,316.602,244.6722461771432,271.7745581465821,99.54317078920687
316.609,316.609,244.68931780158255,271.86584454542816,99.57546469486681
316.616,316.616,244.70486969858754,271.95362686157137,99.59968581953714
316.622,316.622,244.72080088650947,272.0382525376697,99.61331036958305
316.629,316.629,244.73930742933143,272.1197766345022,99.61530848277287
316.636,316.636,244.7625554894043,272.1979433105679,99.62454397923713
316.643,316.643,244.79241453416677,272.2723691803178,99.64360130797019
316.649,316.649,244.83036972407385,272.34281885867176,99.67047570962876
316.656,316.656,244.87757761090714,272.4094263151619,99.70283388772296
316.663,316.663,244.9349184774657,272.472781448294,99.73812491533796
316.67,316.67,245.0030359562998,272.5338797725629,99.77368823983683
316.676,316.676,245.0823936003343,272.59397619638884,99.80698403378823
316.683,316.683,245.17330287126697,272.6543886461369,99.83593254878946
316.69,316.69,245.27589027304884,272.7162840467392,99.859267773897
316.697,316.697,245.38999374936097,272.7804800691435,99.87679672669215
316.703,316.703,245.5149433300451,272.8473036223846,99.88943589379907
316.71,316.71,245.64923831449406,272.9165220247818,99.89895748501633
316.717,316.717,245.7902953351309,272.9873410480433,99.90751872735119
316.724,316.724,245.93449942879303,273.0585072038106,99.91714234977496
316.73,316.73,246.07762929909316,273.12855811032034,99.9293453649228
316.737,316.737,246.2155075007466,273.19615837295595,99.94502067634727
316.744,316.744,246.34466090305378,273.260373485018,99.96448756311447
316.751,316.751,246.46281802266282,273.3207953447088,99.98756215337522
316.757,316.757,246.56914208462098,273.3775835510109,100.01361343327477
316.764,316.764,246.6642394854857,273.43150262181064,100.04167265369136
316.771,316.771,246.7500087025283,273.48388291262546,100.07056800398992
316.778,316.778,246.82927195116545,273.53640715003246,100.09890176148471
316.784,316.784,246.90524189195435,273.590783905543,100.12481730248557
316.791,316.791,246.98113188290193,273.6484653721725,100.1458207394315
316.798,316.798,247.06006619870124,273.7104743445818,100.15897601126372
316.805,316.805,247.1450259464287,273.77723925748523,100.16145445768302
316.811,316.811,247.23856557218826,273.84837779054635,100.17181903008247
316.818,316.818,247.34246849611037,273.92259604822686,100.19625246106392
316.825,316.825,247.4576581183148,273.99789780558865,100.23504674191543
316.832,316.832,247.5843549834864,274.07209345704325,100.28766308435245
316.838,316.838,247.72233140950252,274.1434466782185,100.3527021240695
316.845,316.845,247.87125422940855,274.2113243787978,100.42775315530615
316.852,316.852,248.03101601867633,274.2768628040919,100.50947487700378
316.859,316.859,248.20201719564542,274.3436326243716,100.59422816796908
316.865,316.865,248.38628253858886,274.4179332873747,100.67910266230066
316.872,316.872,248.58900597695737,274.50841598312144,100.76272100983476
316.879,316.879,248.816579649583,274.6254686517768,100.84546523426194
316.886,316.886,249.07201513427975,274.78099329893456,100.92921968231191
316.892,316.892,249.3554624702286,274.9874884104423,101.01619758994683
316.899,316.899,249.66715055861638,275.25313362406797,101.10657179360892
316.906,316.906,250.00231387093964,275.57278024987147,101.1962961801371
316.913,316.913,250.34277537335078,275.9213865405536,101.2764655574389
316.919,316.919,250.6569505016678,276.2552559355677,101.33404487019305
316.926,316.926,250.90620061840116,276.5195392135149,101.35369158317936
316.933,316.933,251.05039906611142,276.6580118344962,101.38684445079645
316.94,316.94,251.0529619752907,276.6935619042448,101.48416898946304
316.946,316.946,251.21881614320304,276.9356761053454,101.6511031174448
316.953,316.953,251.56418225308516,277.3961651879593,101.88571325160584
316.96,316.96,252.081243255167,278.06465137236455,102.17836665985617
316.967,316.967,252.74333212651257,278.91069295725987,102.51236956435326
316.973,316.973,253.50764691858967,279.8881462684911,102.86533976379883
316.98,316.98,254.320169201962,280.9408336522928,103.2112729070283
316.987,316.987,255.12268607131085,282.0089077529761,103.52324393977669
316.994,316.994,255.85943900019603,283.03247527886055,103.77517874049795
317.0,317.0,256.475242075414,283.94464499442245,103.94060396401643
317.007,317.007,256.9009533166821,284.6549374502975,103.99254248001412
317.014,317.014,257.04420200316025,285.0492059379822,104.07183376831064
317.021,317.021,257.27581324730886,285.0710775626841,104.27377352175996
317.027,317.027,257.92396690071405,285.5472488152611,104.55459619055154
317.034,317.034,258.9445375937153,286.4362224547982,104.8446224063482
317.041,317.041,260.21919682405456,287.6286973989435,105.0701631296691
317.048,317.048,261.59676510749165,288.9713355479836,105.17582627383152
317.054,317.054,262.9295175169854,290.29798644644785,105.21340640697359
317.061,317.061,264.0932797009047,291.46294282211767,105.3834514551
317.068,317.068,264.9991951514253,292.3648061207849,105.64862266670741
317.075,317.075,265.6010839312645,292.9554624808962,105.95751228377493
317.081,317.081,265.8950158149101,293.2371521270915,106.25709530220198
317.088,317.088,265.9094142613275,293.25399202113977,106.50201112093406
317.095,317.095,266.1290433583684,293.42539363872714,106.6596523699574
317.102,317.102,266.53345034083003,293.6868330780651,106.71143989855425
317.108,317.108,267.07521191183184,293.9352915323913,106.77135773334936
317.115,317.115,267.70569394220263,294.08603301054063,106.93845675441084
317.122,317.122,268.36823286690986,294.0943530966252,107.20023502659444
317.129,317.129,268.9944872313361,294.22171052726344,107.53835185991703
317.135,317.135,269.50736691879047,294.42883422987285,107.93068359868353
317.142,317.142,269.8294221147287,294.6251196101864,108.35353136308979
317.149,317.149,269.89429868133425,294.70729746286014,108.78370444509804
317.156,317.156,270.13014086918173,294.8321193146596,109.19995099984277
317.162,317.162,270.6787755015255,295.22755878560696,109.58362647980786
317.169,317.169,271.5171468429316,295.9153853340885,109.91873491641462
317.176,317.176,272.5908993751167,296.868301260837,110.1936754683396
317.183,317.183,273.82214090015316,298.0039804085668,110.40453293871442
317.189,317.189,275.0965219394945,299.1778249629027,110.54677215154196
317.196,317.196,276.2240704292959,300.18503282391237,110.59366878722513
317.203,317.203,276.9446166501123,300.79866040528333,110.69607976356032
317.21,317.21,277.04109208202567,300.8466693666618,111.00458862597743
317.216,317.216,277.6055271220926,301.41619848641915,111.54946507610555
317.223,317.223,278.6705561555811,302.52579688361493,112.31765747050065
317.23,317.23,279.98010523223,304.0024834582143,113.24852790137028
317.237,317.237,281.28606558358285,305.6260329015369,114.24264165354673
317.243,317.243,282.395928002111,307.17836622551283,115.18210184811328
317.25,317.25,283.1846570726257,308.48446240426875,115.95478515572856
317.257,317.257,283.59465615379924,309.4365633288896,116.47474181229451
317.264,317.264,283.6282134399088,309.99974733329367,116.69490106867038
317.27,317.27,283.9226184873855,310.2010701794929,116.7783611534027
317.277,317.277,284.4650903687015,310.2944240200009,117.1279424993855
317.284,317.284,285.1556048025142,310.59945346064256,117.67058166524866
317.291,317.291,285.88302190190717,311.0359787945655,118.30777922415636
317.297,317.297,286.5371245257469,311.5372025373449,118.93214801746005
317.304,317.304,287.023403230465,312.05651434229264,119.44851097462137
317.311,317.311,287.2741004592573,312.572727820775,119.79244003077088
317.318,317.318,287.29566508641045,313.09039586704336,119.93940166340887
317.324,317.324,287.5953516221882,313.6340449028446,119.97573797405063
317.331,317.331,288.15116629115096,314.23897607730476,120.15323495146836
317.338,317.338,288.9183011538474,314.94136123061946,120.41494069729917
317.345,317.345,289.83599125387553,315.7697021537075,120.70209952114955
317.351,317.351,290.83602756201344,316.7385037571745,120.96301536810628
317.358,317.358,291.85066011504,317.84179698712524,121.15458946374163
317.365,317.365,292.81218792061946,319.03837568294017,121.23404812168074
317.372,317.372,293.63560264720746,320.2263681236863,121.31701946043914
317.378,317.378,294.1977269733832,321.2359568207243,121.60671985702326
317.385,317.385,294.35440230298093,321.87704276918765,122.10757187545954
317.392,317.392,294.69910276296156,322.01866903381335,122.76225614736582
317.399,317.399,295.5246409662355,322.40339449373056,123.46484763391992
317.405,317.405,296.68770838751567,323.2464296306732,124.0968125583095
317.412,317.412,297.9793709464757,324.41476836070404,124.56154276241804
317.419,317.419,299.1993971284952,325.7385273366793,124.80535485475791
317.426,317.426,300.20442819718085,327.03998909197696,124.82307820600107
317.432,317.432,300.92058561772564,328.1647297591233,124.9958056301667
317.439,317.439,301.3356141158563,329.0058166056746,125.29804673211434
317.446,317.446,301.4841446378058,329.5143891860205,125.66002522833577
317.453,317.453,301.5377581947526,329.697318324026,126.01591455992524
317.459,317.459,301.716717310292,329.78915620777315,126.31208114026498
317.466,317.466,301.94625336806155,330.0776893680424,126.51184615652629
317.473,317.473,302.16366452372546,330.4749539881,126.59756932562591
317.48,317.48,302.3237702480551,330.8976858609497,126.62496055631802
317.486,317.486,302.3999666064904,331.2778267185693,126.74894308584703
317.493,317.493,302.41822748158785,331.5685852732527,126.94240599481263
317.5,317.5,302.5293232112447,331.74633173727426,127.17375976301184
317.507,317.507,302.72271341440154,331.8093943635975,127.41286694576914
317.513,317.513,302.9810727127234,331.8437074612705,127.63532442133797
317.52,317.52,303.2810613040885,331.94504336702187,127.82436372366284
317.527,317.527,303.5958105234675,332.08157272343055,127.9708914015557
317.534,317.534,303.90421676514063,332.23236108434816,128.0723653624074
317.54,317.54,304.19968894690544,332.39088937476777,128.13244781320594
317.547,317.547,304.48679890875576,332.56151609095417,128.16394294451038
317.554,317.554,304.77447764260455,332.75833668383365,128.19196778212978
317.561,317.561,305.0784841632234,333.0062237098852,128.2506080753317
317.567,317.567,305.4252827761177,333.3367011973678,128.37280004566256
317.574,317.574,305.8455825868708,333.7768148168307,128.5799393548198
317.581,317.581,306.36098814569084,334.3362544051024,128.8760616877646
317.588,317.588,306.97253355046104,334.99955089981887,129.24707277106452
317.594,317.594,307.65272320314233,335.7274157998313,129.663660019933
317.601,317.601,308.33975458686075,336.4666636582229,130.0864317826583
317.608,317.608,308.93774372462383,337.16376842887746,130.47281680419454
317.615,317.615,309.33078853014604,337.77549720106936,130.78559572695778
317.621,317.621,309.41318075062117,338.272769025208,131.00094132425608
317.628,317.628,309.70294462613043,338.6387428313254,131.11216961058284
317.635,317.635,310.3648621842352,338.8653745770857,131.1273465731741
317.642,317.642,311.34501518945973,338.9522072979228,131.19176847491386
317.648,317.648,312.5565829434362,338.9971457120181,131.31714470500577
317.655,317.655,313.89881708434984,339.1576339238454,131.48616154138148
317.662,317.662,315.26950998810884,339.41256278246146,131.68408745137367
317.669,317.669,316.5745880809435,339.74067525283175,131.89927327243677
317.675,317.675,317.7370391951659,340.12439821963255,132.12360193719238
317.682,317.682,318.70401314825386,340.5518027888787,132.3527209192913
317.689,317.689,319.45040380151397,341.01676366318384,132.58577466662177
317.696,317.696,319.9781400419344,341.5177975641491,132.82454983536246
317.702,317.702,320.31157057943824,342.0563299541651,133.07213529058146
317.709,317.709,320.4902400203874,342.6349616118717,133.33136647319793
317.716,317.716,320.5605994177671,343.2559042199127,133.60344551451468
317.723,317.723,320.568166754668,343.91981311108094,133.88708497163464
317.729,317.729,320.58477940075227,344.62533508948627,134.17833881335906
317.736,317.736,320.59722515679897,345.3692662657941,134.47112590635783
317.743,317.743,320.6060285389279,346.146843929087,134.7583005256627
317.75,317.75,320.6427297550309,346.9519623690296,135.03292277866765
317.756,317.756,320.70589680734093,347.7775315690612,135.28932666354495
317.763,317.763,320.7891670255392,348.61605634629353,135.52374356366482
317.77,317.77,320.88400324403597,349.4601350024062,135.73443409969116
317.777,317.777,320.98136054874124,350.302616454061,135.92143437489915
317.783,317.783,321.0724147753707,351.136463865319,136.0860718145305
317.79,317.79,321.1489230839364,351.954543837288,136.23036935627434
317.797,317.797,321.2036433097119,352.7495247816134,136.35644186876993
317.804,317.804,321.2308184970535,353.51401096499904,136.46593473867011
317.81,317.81,321.2349880497338,354.2411610967179,136.55953476933627
317.817,317.817,321.27179110641833,354.9263480683807,136.63675046415378
317.824,317.824,321.3395440645685,355.5700459253533,136.6960889193226
317.831,317.831,321.43408805603514,356.1799255424117,136.73541497977206
317.837,317.837,321.55088060053873,356.76856418199986,136.75245278005798
317.844,317.844,321.6873597093643,357.34656395308036,136.7592804837403
317.851,317.851,321.8434363716058,357.91603506455914,136.78996832262612
317.858,317.858,322.02015190678213,358.4689445753001,136.8425470773134
317.864,317.864,322.2179666531812,358.990049882467,136.91328026391457
317.871,317.871,322.43524415109385,359.4615448046076,136.99720539781453
317.878,317.878,322.6670973444451,359.86723801236917,137.0888237386576
317.885,317.885,322.9051327784518,360.1953725597821,137.18272980946975
317.891,317.891,323.1383218128547,360.43990313701846,137.2740081125268
317.898,317.898,323.35454663112097,360.60041237984376,137.35839705330037
317.905,317.905,323.54215450840655,360.6810727899193,137.43234299051002
317.912,317.912,323.6912100017466,360.68912858468497,137.49305706583309
317.918,317.918,323.79441232214543,360.74498045610346,137.53858539323224
317.925,317.925,323.84758533127433,360.85604544458687,137.56780504652954
317.932,317.932,323.8497433034222,361.01477021907687,137.58027918861282
317.939,317.939,323.896683660078,361.21552356629286,137.58453273996045
317.945,317.945,323.98855170255746,361.4548138609874,137.60525786798425
317.952,317.952,324.1196432709231,361.7306432326985,137.64213905758032
317.959,317.959,324.2832051069335,362.0411935279574,137.69495673824918
317.966,317.966,324.4719483852461,362.3835150811323,137.7636628064413
317.972,317.972,324.6787894692596,362.7528634395887,137.84828617401612
317.979,317.979,324.8974608131574,363.1430007316425,137.94865282691106
317.986,317.986,325.12274801488223,363.54725672946023,138.06399807067842
317.993,317.993,325.3505182830179,363.9597991116958,138.19258628465445
317.999,317.999,325.5777475237412,364.37665329850637,138.33146317756794
318.006,318.006,325.8025921039115,364.796207012457,138.47645308112834
318.013,318.013,326.0243584548922,365.2190493535108,138.62244365437553
318.02,318.02,326.2431704432632,365.64721368235325,138.76389608464027
318.026,318.026,326.4593373343717,366.0831952705636,138.89545097951492
318.033,318.033,326.6726484975298,366.52916805558664,139.0125043539987
318.04,318.04,326.881878528136,366.9865344018175,139.11164006961332
318.047,318.047,327.08468537414353,367.45563254328846,139.1907949851417
318.053,318.053,327.27788005659767,367.93542137734244,139.2491211698357
318.06,318.06,327.45786773398777,368.42319684151573,139.2866847498876
318.067,318.067,327.6210736433627,368.91452183002616,139.30417923814855
318.074,318.074,327.764267173814,369.40349738867275,139.30567977523344
318.08,318.08,327.8846024841674,369.88344004283783,139.32503798687281
318.087,318.087,327.979160883095,370.3479281901179,139.3615098712039
318.094,318.094,328.04418265064265,370.7919840353959,139.41522747821298
318.101,318.101,328.0746329890438,371.21300451901016,139.4874442483573
318.107,318.107,328.0846379414768,371.6110717086958,139.5803472728197
318.114,318.114,328.1407202157025,371.98842989750847,139.69649999432121
318.121,318.121,328.24727277423364,372.3482347143954,139.83820232744412
318.128,318.128,328.4074254717741,372.69309543114264,140.00707090806955
318.134,318.134,328.6240128355876,373.0239215314769,140.20395187002217
318.141,318.141,328.90096825375326,373.3390811745495,140.4290648551549
318.148,318.148,329.2445709271171,373.6338179339167,140.68219193350438
318.155,318.155,329.66420719939464,373.90041989161597,140.96276550137648
318.161,318.161,330.1721481655431,374.12960249744685,141.26986426882038
318.168,318.168,330.7818154160138,374.3126509053382,141.60228688765375
318.175,318.175,331.5048906971372,374.4433079830471,141.95883707292134
318.182,318.182,332.34847924375316,374.51898417802704,142.33870736077904
318.188,318.188,333.31290301126967,374.54174590341154,142.74160049074297
318.195,318.195,334.3895268606576,374.56406188736094,143.1672743034992
318.202,318.202,335.5588784795435,374.6171298237628,143.6146475655391
318.209,318.209,336.7911101882784,374.68070400448187,144.08101942192343
318.215,318.215,338.0494461156788,374.73057241607165,144.56177027035002
318.222,318.222,339.29409710448635,374.74076552712063,145.05041722556686
318.229,318.229,340.48467622037674,374.7965792347942,145.53880938019284
318.236,318.236,341.5822643188765,374.94433398597266,146.01750937886763
318.242,318.242,342.5523001416853,375.2088159015733,146.47648696616434
318.249,318.249,343.36709409341466,375.6128990298541,146.90607587885626
318.256,318.256,344.01028395501794,376.1792404809833,147.30296511330428
318.263,318.263,344.47092619527973,376.9496920918136,147.68599335993986
318.269,318.269,344.698948147044,378.0326632078827,148.10044800948538
318.276,318.276,344.8156098044526,379.6131138323593,148.58568650908944
318.283,318.283,345.34799243897305,381.8377836300667,149.13508853791802
318.29,318.29,346.190722956725,384.65584068125315,149.69337260328865
318.296,318.296,347.0830288614305,387.79243009572207,150.18389549583517
318.303,318.303,347.75548198588245,390.86598481357976,150.5368628920047
318.31,318.31,348.0360453692665,393.5232358608805,150.7085200469198
318.317,318.317,348.2039898215882,395.52090038933795,150.72914555068402
318.323,318.323,348.773588523262,396.75442149619835,150.92692346458287
318.33,318.33,349.6078990270773,397.24729011986017,151.27144594838316
318.337,318.337,350.5108473582746,397.3782136914566,151.72271304458005
318.344,318.344,351.27976113420937,397.9645304239515,152.23251114437122
318.35,318.35,351.75618737685437,398.82316245998163,152.74664682486363
318.357,318.357,351.8523752374207,399.78395342278515,153.2103365198358
318.364,318.364,352.1515148587087,400.7086707325707,153.57655507611142
318.371,318.371,352.80027870405024,401.5027322468805,153.81581487016723
318.377,318.377,353.71292982628705,402.12077439873485,153.92398275142108
318.384,318.384,354.7889327166664,402.5664649163583,153.92451148122348
318.391,318.391,355.9356473639226,402.886020384383,153.9852591805464
318.398,318.398,357.0847808961035,403.15586406950985,154.0483380749929
318.404,318.404,358.20091633224024,403.4659673555258,154.0552829873843
318.411,318.411,359.2806363968255,403.90122856319556,154.15027342489248
318.418,318.418,360.3440949726749,404.52514543465276,154.37218848931792
318.425,318.425,361.4234388757372,405.3701517667555,154.72262721545113
318.431,318.431,362.5508617905869,406.43606664599656,155.18226045200967
318.438,318.438,363.7480068736092,407.69502586051567,155.71644663762245
318.445,318.445,365.0192726778281,409.0995529894178,156.28170036638235
318.452,318.452,366.3500646090757,410.5904232355867,156.83131636341992
318.458,318.458,367.7084385180455,412.1021944785599,157.3194082543511
318.465,318.465,369.0465878756856,413.5633333471982,157.7027913632097
318.472,318.472,370.296363159361,414.88696388563454,157.9426046782253
318.479,318.479,371.3615904908049,415.96117846279196,158.01191733667596
318.485,318.485,372.12926823760404,416.66464884229055,158.11311581969852
318.492,318.492,372.51326870740104,416.912701700556,158.34713895940914
318.499,318.499,372.5262391362038,417.1276408710299,158.64403115422311
318.506,318.506,372.8713214667832,417.7319899582394,158.92072933690486
318.512,318.512,373.4375089035973,418.59487156554735,159.1030906894103
318.519,318.519,374.1004423239521,419.5589031376539,159.1423219780423
318.526,318.526,374.7412145453161,420.46894322234414,159.26299085860174
318.533,318.533,375.26125764823746,421.19683575548424,159.5306198015185
318.539,318.539,375.5966592740455,421.6593011846784,159.90931346828788
318.546,318.546,375.72476246898634,421.8253002528895,160.34805111123075
318.553,318.553,375.7894250486119,421.9387569331828,160.78941912299018
318.56,318.56,376.0059289318725,422.2790429259955,161.179401693499
318.566,318.566,376.31911679818563,422.773243135568,161.4764124530361
318.573,318.573,376.6696393938099,423.34249976404857,161.6570178641261
318.58,318.58,377.00160858496116,423.91418949883916,161.71754154640843
318.587,318.587,377.2697230973885,424.4318312117133,161.76235706283327
318.593,318.593,377.44728100316877,424.8617596132372,161.8827517803387
318.6,318.6,377.53288040355415,425.19488292949757,162.03983327663065
318.607,318.607,377.5494526881871,425.443614831965,162.19344649887242
318.614,318.614,377.5635930231797,425.6369717159362,162.309570992689
318.62,318.62,377.5643692081174,425.8158266663244,162.36516496344498
318.627,318.627,377.62840445409927,426.02701230360367,162.38038185040182
318.634,318.634,377.8002272218035,426.3158037922861,162.46492370769516
318.641,318.641,378.1122185370044,426.71909616845437,162.60831206818614
318.647,318.647,378.57902990898873,427.2609467196787,162.79426598770652
318.654,318.654,379.19543502243835,427.95012881306883,163.00364748020928
318.661,318.661,379.9364466784727,428.7787894154734,163.216701241588
318.668,318.668,380.7588575676453,429.7192116505256,163.4130214149728
318.674,318.674,381.59930513920506,430.71383543042185,163.56951604260317
318.681,318.681,382.3672203042251,431.66450235758623,163.66279019345757
318.688,318.688,382.94795385535116,432.443572422185,163.68123730145172
318.695,318.695,383.23345580289066,432.93556617703604,163.7236937644396
318.701,318.701,383.2993006108565,433.07915293511917,163.78647456317339
318.708,318.708,383.6974489938567,433.28036162225754,163.81594840573993
318.715,318.715,384.34858243574257,433.77138872908404,163.8686193770476
318.722,318.722,385.146700534553,434.4620092668397,164.03484334743283
318.728,318.728,385.98718442576546,435.24075421375454,164.32347331909673
318.735,318.735,386.7819336902441,435.992365114267,164.72153830312104
318.742,318.742,387.4653336822274,436.6181319072774,165.1986647116336
318.749,318.749,387.9962857487503,437.05221435644444,165.7136112210548
318.755,318.755,388.3590075292416,437.2686096908799,166.22180122395784
318.762,318.762,388.5620343669183,437.2783363481954,166.68259308875272
318.769,318.769,388.6338137151495,437.43717210364696,167.06477643407138
318.776,318.776,388.6524260704414,437.71220979382593,167.34915830640298
318.782,318.782,388.71692750419925,438.04786741066937,167.52813207620326
318.789,318.789,388.78860145076044,438.39140432145217,167.60313249510742
318.796,318.796,388.8444681684927,438.6939120910214,167.62476733920164
318.803,318.803,388.884754530077,438.90973080983576,167.73186884673487
318.809,318.809,388.9341012002629,438.9998116755869,167.9097052038386
318.816,318.816,389.03511518633235,439.05927737250795,168.1394619610672
318.823,318.823,389.2347519818163,439.26945287385547,168.39863565893847
318.83,318.83,389.56752479117756,439.6090304381231,168.6630661434163
318.836,318.836,390.0416565698814,440.0403433214371,168.9103381685759
318.843,318.843,390.63055252623644,440.5159084711712,169.12356657237913
318.85,318.85,391.27032791244096,440.98257775507545,169.2940234354291
318.857,318.857,391.8667815782143,441.3834769069565,169.42153891883703
318.863,318.863,392.31284136294323,441.6590577946517,169.51274485419557
318.87,318.87,392.5099336219687,441.74933518975274,169.5780832786643
318.877,318.877,392.6360784405921,441.89957125289794,169.6287277234921
318.884,318.884,393.12928756820565,442.33365780983763,169.67414229164788
318.89,318.89,394.0039383310589,443.07762649164476,169.72044909930764
318.897,318.897,395.24833006155,444.13770146476986,169.76956979115673
318.904,318.904,396.82618384659116,445.4979643555428,169.8191099985221
318.911,318.911,398.6752523744403,447.11623927564443,169.86295298017913
318.917,318.917,400.70736599033165,448.9206802095022,169.89254819546505
318.924,318.924,402.814818687185,450.81096480333724,169.89876731526613
318.931,318.931,404.8895432595395,452.66490404468567,169.9186004526359
318.938,318.938,406.84028523303675,454.3381951539944,169.94287942211136
318.944,318.944,408.55773257744266,455.6443430939792,169.96982133232
318.951,318.951,409.8706868589287,456.3584875933313,170.11224671871145
318.958,318.958,410.62569410292247,456.4123302959265,170.4016690462553
318.965,318.965,410.8302025087758,457.252743808675,170.82120933320067
318.971,318.971,410.9991272705044,458.7267286140125,171.31769996048257
318.978,318.978,411.31744411483874,460.579492192217,171.8193744231851
318.985,318.985,411.62036883810475,462.5277665484221,172.25061861496764
318.992,318.992,411.8342795502821,464.3129104521125,172.545365385343
318.998,318.998,411.96110426761663,465.74093858543444,172.65839739658242
319.005,319.005,412.04553754540353,466.7054150110632,172.74428130431673
319.012,319.012,412.1440168645644,467.18951201639663,173.01627486054448
319.019,319.019,412.30587179140184,467.2500894146844,173.43570089926726
319.025,319.025,412.5658700897179,467.50868044758664,173.9475494956563
319.032,319.032,412.94022695068287,467.9612501841837,174.49179595617505
319.039,319.039,413.4232124398466,468.48352795259177,175.01291075162138
319.046,319.046,413.9893809229258,468.96902327519706,175.46609662793216
319.052,319.052,414.60344112567026,469.3410820183922,175.8204990712313
319.059,319.059,415.23141991813515,469.55868010089944,176.06049237400308
319.066,319.066,415.8467803439387,469.61537067818904,176.18566792880927
319.073,319.073,416.4317607953286,469.6981819880451,176.2092815563099
319.079,319.079,416.9769464657045,469.88120338818385,176.2634637845412
319.086,319.086,417.4802681618983,470.1176932275757,176.36533286817712
319.093,319.093,417.94538553252727,470.362569716381,176.4828581306385
319.1,319.1,418.3795407386466,470.57936376481575,176.58616323791225
319.106,319.106,418.7910627981396,470.74439722376525,176.65077648426617
319.113,319.113,419.186977069559,470.8479679934964,176.65977632963953
319.12,319.12,419.57158295801213,470.8929082768363,176.7146241778513
319.127,319.127,419.9464512046534,470.8946629433789,176.83250150475405
319.133,319.133,420.311341892398,470.9265081694498,177.00399353841894
319.14,319.14,420.6651943048147,470.97131640692584,177.21262383349543
319.147,319.147,421.00671028278146,471.0143954198459,177.43741451643368
319.154,319.154,421.3345023365803,471.0451501826157,177.6559618723023
319.16,319.16,421.6470055847441,471.0576862017325,177.84745203573678
319.167,319.167,421.9424218517414,471.06486517096704,177.99521160905658
319.174,319.174,422.21887813683384,471.08982988624985,178.08849023864042
319.181,319.181,422.4747532318774,471.128448758826,178.1232736852844
319.187,319.187,422.7090009451562,471.1755434468083,178.14444113123315
319.194,319.194,422.92141472231145,471.2259037959783,178.21348190675843
319.201,319.201,423.11288340692073,471.27516033430646,178.31846207247125
319.208,319.208,423.28557092698964,471.3203968821979,178.44568908242974
319.214,319.214,423.44276627119933,471.36034376693755,178.58185397783384
319.221,319.221,423.5882668018013,471.3951388099987,178.7157038726278
319.228,319.228,423.7255799233973,471.42584460837134,178.83883857582154
319.235,319.235,423.85734387862027,471.45400279377554,178.94562726739377
319.241,319.241,423.9850410775925,471.48135894852675,179.03264380864292
319.248,319.248,424.1088812396673,471.50970676614224,179.09805482021366
319.255,319.255,424.227825946162,471.54077345062825,179.14117062930706
319.262,319.262,424.3398196489912,471.57605029412395,179.16217614568325
319.268,319.268,424.44228627910064,471.6165376694255,179.1624077444507
319.275,319.275,424.5328091648749,471.66257996150995,179.18243915433322
319.282,319.282,424.60963452774183,471.7139839606635,179.2201965980959
319.289,319.289,424.6716484399563,471.7703912649212,179.27268434563348
319.295,319.295,424.7179749944197,471.8316520979969,179.33572399070349
319.302,319.302,424.7477640511246,471.89788459825985,179.4040142230046
319.309,319.309,424.76053170732985,471.9691698819357,179.47164719982177
319.316,319.316,424.76429256964803,472.04515470799697,179.53295471183537
319.322,319.322,424.78276537533884,472.1248005306594,179.5833132423527
319.329,319.329,424.8128395015421,472.2063654075566,179.6194479381648
319.336,319.336,424.85029412981993,472.28759356146867,179.63903228169525
319.343,319.343,424.8901165854953,472.3659723413772,179.63995874463586
319.349,319.349,424.9272132073791,472.4389719450598,179.65992166353084
319.356,319.356,424.95753029939203,472.50431650946075,179.70266674734924
319.363,319.363,424.979066794787,472.56031341189396,179.76867368632466
319.37,319.37,424.99221482222686,472.60618060812044,179.85595911908456
319.376,319.376,424.9994023543755,472.64228193996,179.9596844590461
319.383,319.383,425.00443160418166,472.6701690207037,180.07265099363622
319.39,319.39,425.01182580413143,472.6923484965276,180.18646065321926
319.397,319.397,425.0262237821888,472.71181798194635,180.29291335972067
319.403,319.403,425.05177944173,472.7315800719339,180.3852643155295
319.41,319.41,425.09168782724953,472.75433879003714,180.45910672687322
319.417,319.417,425.14802751600484,472.7823667681831,180.51271167867657
319.424,319.424,425.2218696971917,472.81738595467715,180.54673246566568
319.43,319.43,425.31343774466154,472.8604073857474,180.5634042788531
319.437,319.437,425.4221863247548,472.91163533512395,180.56557511232464
319.444,319.444,425.54679717503836,472.9705437536738,180.5752419011271
319.451,319.451,425.68523406968495,473.03612637814996,180.59470886778365
319.457,319.457,425.83503700502854,473.1072255250719,180.62268491847198
319.464,319.464,425.9937907104679,473.18279262471725,180.65859474328352
319.471,319.471,426.15945496158923,473.2619891132667,180.70250884780876
319.478,319.478,426.3303372763513,473.34417696982393,180.75498839744344
319.484,319.484,426.5047761084325,473.4288763608289,180.8166819221665
319.491,319.491,426.68079693209256,473.51566606454116,180.8875508170223
319.498,319.498,426.8560560925946,473.6039808254116,180.96590945254005
319.505,319.505,427.0282422942493,473.6928979905976,181.04783526498196
319.511,319.511,427.19577205083425,473.78112633105235,181.12747854323922
319.518,319.518,427.35834828586377,473.86726723222836,181.19827357601122
319.525,319.525,427.5169888147882,473.95016567264315,181.25444562589456
319.532,319.532,427.6735362161169,474.0291949929003,181.29204934715844
319.538,319.538,427.83006474034806,474.10445176049166,181.30916444897414
319.545,319.545,427.9885085275538,474.17676074533,181.31291397001377
319.552,319.552,428.1504868386754,474.2473892251397,181.33709482160268
319.559,319.559,428.3172115799041,474.31761925549193,181.38102264029317
319.565,319.565,428.48952761209904,474.3884536196694,181.44382507618008
319.572,319.572,428.66817632643244,474.4605287551164,181.5240626842438
319.579,319.579,428.854011143273,474.5340991539621,181.61937302727966
319.586,319.586,429.04773538281296,474.60904632808206,181.72664480728025
319.592,319.592,429.2494242562887,474.68500207504553,181.84279893639115
319.599,319.599,429.45867558152656,474.76150605406707,181.96558295922264
319.606,319.606,429.67600486663804,474.8375066461888,182.09345412751765
319.613,319.613,429.9030090542341,474.9105960675303,182.22447788870852
319.619,319.619,430.13894166465053,474.9796167570168,182.35542000880943
319.626,319.626,430.3807909921876,475.0509969069064,182.481619856604
319.633,319.633,430.6294987100358,475.1409844152771,182.59767756816197
319.64,319.64,430.89080056702295,475.2695976147884,182.69976014209425
319.646,319.646,431.16972026503095,475.45237643440055,182.78860022533195
319.653,319.653,431.4683289786004,475.6954800318329,182.87027169082953
319.66,319.66,431.78516106620566,475.9935282040995,182.95391257492724
319.667,319.667,432.1112114321623,476.3282859240462,183.04793929341858
319.673,319.673,432.42648702736625,476.66832030053445,183.1562599018931
319.68,319.68,432.70224337761414,476.9709795753767,183.27552543529907
319.687,319.687,432.90677818556304,477.1874601513135,183.3942460270883
319.694,319.694,433.0106872033495,477.2704365536156,183.49420198778708
319.7,319.7,433.03022127024684,477.35841097554817,183.55400008851853
319.707,319.707,433.18587606148185,477.63805243323657,183.55400990770445
319.714,319.714,433.4780248302918,478.10975378015524,183.62660248001197
319.721,319.721,433.89431512694813,478.7539283171988,183.77394356721769
319.727,319.727,434.41108718531115,479.53461124764596,183.98563696889434
319.734,319.734,434.9959912805608,480.40469314757223,184.23912096872192
319.741,319.741,435.6111146027947,481.31174163996957,184.50245472023582
319.748,319.748,436.21714025050454,482.20391833519034,184.73924353332845
319.754,319.754,436.77738422336756,483.03348054371247,184.91362149788839
319.761,319.761,437.25520330233314,483.75155564705136,184.99188082078948
319.768,319.768,437.6009108995852,484.29337280249706,185.04112311595728
