Time,Time,Sum Acc X,Sum Acc Y,Sum Acc Z
191.869,191.869,0.001791141745532314,0.0007404379772205411,0.00010392160429451091
191.876,191.876,0.01583582564819156,0.0064373958187511245,0.0009478324484286386
191.882,191.882,0.0681978034359812,0.029220892135740435,0.005946849647171636
191.889,191.889,0.19000039140571545,0.09282458838986915,0.03084546776124541
191.896,191.896,0.36935181589432325,0.22561747811846056,0.1253157473357457
191.903,191.903,0.47382057942621736,0.42670596886634626,0.39023096519413986
191.909,191.909,0.7095651085372463,0.6248888008967834,0.9530020921263551
191.916,191.916,1.5363237902787152,0.6965180301173433,1.8989370149199178
191.923,191.923,3.006561281014655,0.8460764802573149,3.2154307569788614
191.93,191.93,4.963633236369463,1.2285500441573256,4.789409448639427
191.936,191.936,7.163292604332497,1.791579943773999,6.441409190560148
191.943,191.943,9.355958824372749,2.4617733836478033,7.96932159243449
191.95,191.95,11.310000200433038,3.170974736065896,9.189852771905187
191.957,191.957,12.839062035851654,3.8663360379117266,9.97046414764782
191.963,191.963,13.836782294779836,4.51172039839054,10.24783251772501
191.97,191.97,14.290242305429798,5.084293806430966,10.463069429202715
191.977,191.977,14.3149514224305,5.569890057979915,11.094680924246973
191.984,191.984,14.70125425675558,5.959445682627012,12.01998029877854
191.99,191.99,15.31069146118326,6.247329429975835,13.094462373514435
191.997,191.997,16.007344184135,6.431697808539382,14.176165089901524
192.004,192.004,16.678712764276668,6.516494429211561,15.145764342416976
192.011,192.011,17.25079507761807,6.518633678545957,15.92014944813727
192.017,192.017,17.693060655676135,6.58270289828742,16.458676269145844
192.024,192.024,18.01460384978884,6.665010859296116,16.762305800258172
192.031,192.031,18.258820939997985,6.693951708390551,16.865261904920203
192.038,192.038,18.497615870909495,6.819569723316768,16.91001352660972
192.044,192.044,18.818430659835368,7.2074543547097605,17.044199620982702
192.051,192.051,19.30147630667569,7.928130574124548,17.210499336318012
192.058,192.058,19.992423350040813,8.98326677708171,17.354952936522505
192.065,192.065,20.884009463904178,10.306693650231196,17.430785329403214
192.071,192.071,21.919747445790637,11.784863919387838,17.457679701029004
192.078,192.078,23.01659141665329,13.278757671128929,17.603819500090076
192.085,192.085,24.09041514535648,14.645581306174261,17.866140782873618
192.092,192.092,25.072177759809144,15.763073416527902,18.22379791967875
192.098,192.098,25.913841206082214,16.55175921557126,18.642833700212204
192.105,192.105,26.589811621296437,16.987039254429465,19.08273386020462
192.112,192.112,27.098298649449998,17.097485661180894,19.50409241267326
192.119,192.119,27.461524947125476,17.242727799209533,19.876043161687463
192.125,192.125,27.721382938771487,17.551668794429766,20.181630079177417
192.132,192.132,27.929733205246546,17.927977381820693,20.419583190434203
192.139,192.139,28.136181562506653,18.2873891350393,20.602319993115483
192.146,192.146,28.37735814335733,18.569462917616185,20.751527302941124
192.152,192.152,28.67036326656031,18.743102287663874,20.892982971907372
192.159,192.159,29.011228217336527,18.80591844641045,21.051658147458276
192.166,192.166,29.37752523166134,18.832915173510248,21.247543856531347
192.173,192.173,29.733155192085533,18.91363696598815,21.492334269691714
192.179,192.179,30.034762980564757,19.006695427770495,21.78740840411866
192.186,192.186,30.240871755562093,19.074024637516043,22.123887673926802
192.193,192.193,30.322439444890687,19.085933728830206,22.484829823027024
192.2,192.2,30.37450189345312,19.14886439114992,22.848888046795153
192.206,192.206,30.547016091040764,19.295255908435948,23.1948839278797
192.213,192.213,30.805313945511553,19.523770192604726,23.506237361469108
192.22,192.22,31.096305599392082,19.825973681784273,23.7733981652978
192.227,192.227,31.356038200868,20.190091334445064,23.99340463513262
192.233,192.233,31.5215884357087,20.60383707779422,24.16752234596986
192.24,192.24,31.54320462318408,21.05623142772837,24.298658259789214
192.247,192.247,31.69412270585835,21.53965260974515,24.389981526771734
192.254,192.254,32.023469515334305,22.052046804161417,24.44518791219164
192.26,192.26,32.518938668383925,22.59748188981538,24.469541924318733
192.267,192.267,33.158068054698475,23.184258625151173,24.470505653361855
192.274,192.274,33.916420125249864,23.82198853694017,24.483437963348088
192.281,192.281,34.773099495681215,24.519145993374295,24.499457233639315
192.287,192.287,35.71261154698875,25.281277932756407,24.507504857844502
192.294,192.294,36.72414792027383,26.10959060659606,24.51746233851136
192.301,192.301,37.80000145882581,26.999915175723793,24.553149022553928
192.308,192.308,38.93364716039355,27.942145424985373,24.618892221574583
192.314,192.314,40.11741703151663,28.920204770388374,24.71499261376755
192.321,192.321,41.34031423868611,29.912560304739543,24.83777281671703
192.328,192.328,42.58654425672658,30.893175419459283,24.980195119247835
192.335,192.335,43.834753307099554,31.83271649266059,25.132684119233204
192.341,192.341,45.05790539605523,32.69985652051649,25.283946873192622
192.348,192.348,46.223476991618654,33.46150304813602,25.42175120290576
192.355,192.355,47.29318918405138,34.07892119105132,25.53130232901572
192.362,192.362,48.219302191972744,34.49499758182111,25.58740733545705
192.368,192.368,48.930234289567174,34.618500777978284,25.62828734611036
192.375,192.375,49.31029467495596,34.89699961745082,25.821201331227762
192.382,192.382,49.41647978884217,35.63614318000686,26.210523622975092
192.389,192.389,50.151597006940236,36.77331717305353,26.808816371951583
192.395,192.395,51.56509733938319,38.12171094843422,27.586200081530162
192.402,192.402,53.55480007448701,39.43470996471534,28.468927737861716
192.409,192.409,55.87371521487439,40.48734050932263,29.34938918670365
192.416,192.416,58.20166263650847,41.133009259080005,30.109613426841808
192.422,192.422,60.23803044753961,41.32286469328312,30.649957355054685
192.429,192.429,61.772174617399756,41.548837948030155,30.9110069537156
192.436,192.436,62.71586217409574,42.08538598656337,30.939292594003064
192.443,192.443,63.10001563880524,42.79231279229445,31.221344415722154
192.449,192.449,63.15523199749401,43.525923144948514,31.689369102228017
192.456,192.456,63.48254978227198,44.16518665360233,32.26090651909559
192.463,192.463,63.90791181324843,44.62875026657141,32.85530642893259
192.47,192.47,64.28111168772567,44.88243049825613,33.4059238761117
192.476,192.476,64.49428379757934,44.93787850204586,33.867055504510034
192.483,192.483,64.49984987503787,45.03205389051808,34.2160961186372
192.49,192.49,64.73642270677861,45.20420067654397,34.45181681807442
192.497,192.497,65.17912085375636,45.37537211511347,34.5896817389649
192.503,192.503,65.77859218044725,45.473608407940404,34.65535089885514
192.51,192.51,66.47435550401151,45.50312618906549,34.67772028873638
192.517,192.517,67.20709856115857,45.693230590360045,34.68268721928725
192.524,192.524,67.92912702404817,46.05506707432664,34.688161491634204
192.53,192.53,68.61275957666672,46.58272223033036,34.700128810738526
192.537,192.537,69.25595840015471,47.26080296549988,34.71005377408714
192.544,192.544,69.88285496492284,48.07247963718374,34.72463813992673
192.551,192.551,70.53712422631814,49.00464901751486,34.7942922120166
192.557,192.557,71.26954320998765,50.04779832059804,34.94721896777624
192.564,192.564,72.12361967032834,51.19122184605498,35.198282917966615
192.571,192.571,73.12251228343695,52.4173804863879,35.54218384191335
192.578,192.578,74.25956965966766,53.69893066214242,35.952872248987426
192.584,192.584,75.49581969851498,54.999115248966525,36.388437088827715
192.591,192.591,76.76697299766515,56.275149590193365,36.799497349798685
192.598,192.598,77.99726679166844,57.48464751025712,37.13892365253811
192.605,192.605,79.11340831291713,58.593357362856445,37.37079586861984
192.611,192.611,80.05444062421962,59.580222339158276,37.47677132064413
192.618,192.618,80.77815745778541,60.438200647323946,37.495209591665486
192.625,192.625,81.26528998519093,61.17290317445675,37.61914526544523
192.632,192.632,81.52061681042895,61.80008551192498,37.817994060982265
192.638,192.638,81.5700801876447,62.341627263786066,38.056486487725444
192.645,192.645,81.68526906268335,62.82070946926747,38.301160535541534
192.652,192.652,81.915261498708,63.25737299821277,38.52531799762123
192.659,192.659,82.20707628931183,63.66535786795539,38.71191507738585
192.665,192.665,82.50869152359324,64.05072350858083,38.85434194185746
192.672,192.672,82.77265571887564,64.41191053172872,38.955354905049894
192.679,192.679,82.95988111311061,64.7404525156107,39.024573183080456
192.686,192.686,83.04338675321388,65.02185419615624,39.07522900378502
192.692,192.692,83.07529391095859,65.23672734797074,39.12123284976892
192.699,192.699,83.21735365418077,65.3626070200787,39.17533472551469
192.706,192.706,83.44849734070986,65.37645976029599,39.2481485573338
192.713,192.713,83.73598133476176,65.49563191830293,39.347280094453644
192.719,192.719,84.04169175918416,65.76454660284453,39.47628392214568
192.726,192.726,84.32953149280118,66.19387424723931,39.63386178262247
192.733,192.733,84.57198631849856,66.78696409150561,39.81393656532727
192.74,192.74,84.7548071934743,67.5388052742048,40.00691586283987
192.746,192.746,84.88365665505114,68.43715326260649,40.201376285948896
192.753,192.753,84.996765067084,69.4710361192299,40.38544010994006
192.76,192.76,85.16689015185905,70.64245812719386,40.550161381317075
192.767,192.767,85.45794484343614,71.96257760075635,40.69602564721237
192.773,192.773,85.84425913991713,73.42842021247559,40.83531386756516
192.78,192.78,86.16810316199735,75.00445551851341,40.98399179635222
192.787,192.787,86.1911488411126,76.62579267939856,41.150677601337414
192.794,192.794,86.67884085542913,78.21330949754713,41.33447108845461
192.8,192.8,87.77046349160845,79.687598842793,41.5317868707461
192.807,192.807,89.41786064868609,80.97918868005016,41.743555745060284
192.814,192.814,91.46470910263255,82.03592076272739,41.97659071753855
192.821,192.821,93.70630965867291,82.82629050144683,42.239266945840164
192.827,192.827,95.94528563994379,83.33761049270097,42.53541672313835
192.834,192.834,98.02724080845535,83.571104469641,42.86008500224144
192.841,192.841,99.85490201872189,83.60410685431198,43.198517135192986
192.848,192.848,101.38587755087522,83.88247699229639,43.52800010190825
192.854,192.854,102.61962850539683,84.37357526852038,43.82177510819698
192.861,192.861,103.57903943115247,85.03348601540134,44.05438561385808
192.868,192.868,104.29312187639897,85.81118639215686,44.20741017885426
192.875,192.875,104.78675724091123,86.65447511025738,44.273906597855294
192.881,192.881,105.07920708984805,87.51498867468928,44.287677266841
192.888,192.888,105.18876374428257,88.3520828444503,44.36366004529656
192.895,192.895,105.23816798325312,89.13598867985804,44.475906361203336
192.902,192.902,105.41198514330632,89.8497621507348,44.59572799299169
192.908,192.908,105.66349648694936,90.48954822228258,44.696840911744054
192.915,192.915,105.93544636184077,91.06324017560162,44.759463300333564
192.922,192.922,106.16409576813032,91.587804223905,44.77263411830527
192.929,192.929,106.2854257375522,92.08563552818715,44.81078246436696
192.935,192.935,106.32780595906979,92.58061356886593,44.894498780255255
192.942,192.942,106.57435466228956,93.09468254546424,45.01296307071494
192.949,192.949,107.04268198546187,93.64552789533963,45.15322941041785
192.956,192.956,107.72359431323235,94.24548083435619,45.302843108582834
192.962,192.962,108.58134297038295,94.90138841679872,45.451264129209534
192.969,192.969,109.55874982455421,95.61483222378027,45.589822626211195
192.976,192.976,110.58632083534769,96.38207644043207,45.71094004076558
192.983,192.983,111.59276746863286,97.19386263497954,45.8074990086593
192.989,192.989,112.51423482206665,98.03587095626473,45.87279101286162
192.996,192.996,113.30084081562636,98.89024902051382,45.901029375831015
193.003,193.003,113.92049177223163,99.73768465599493,45.9139435395232
193.01,193.01,114.36043404997558,100.55930480195153,45.969693927697385
193.016,193.016,114.62664809189543,101.33814982060636,46.067027093259746
193.023,193.023,114.74093438110775,102.06026326728936,46.20155733544306
193.03,193.03,114.74590404992607,102.71528838836856,46.365963425319606
193.037,193.037,114.83273287442069,103.29637960142158,46.55061223558394
193.043,193.043,114.96562210805529,103.79949122461186,46.744645094825266
193.05,193.05,115.11587501653709,104.22234699579768,46.937470920498384
193.057,193.057,115.26566132740814,104.56340072838242,47.12041040080736
193.064,193.064,115.4094460706048,104.82098481739439,47.28807837629951
193.07,193.07,115.55307809909995,104.99265348525502,47.43911333996365
193.077,193.077,115.7096391152189,105.07112940952047,47.57820730799418
193.084,193.084,115.90175159872764,105.10722685706189,47.72587524337386
193.091,193.091,116.19633331566259,105.29600545031413,47.93613819436855
193.097,193.097,116.75478421069808,105.68180089727043,48.30403690135931
193.104,193.104,117.82291456659391,106.30231722148817,48.94433154113967
193.111,193.111,119.64107497382417,107.1762895415099,49.94719572889407
193.118,193.118,122.34187122283497,108.28897612187451,51.33495473606167
193.124,193.124,125.88927147960504,109.58190184887124,53.041661155528104
193.131,193.131,130.068796498489,110.9530886616487,54.92358231226245
193.138,193.138,134.52578773080822,112.27125856674388,56.79359194141135
193.145,193.145,138.84041215639343,113.40641361297129,58.46491861474667
193.151,193.151,142.61689324207185,114.26757883054884,59.79039061462229
193.158,193.158,145.56049204780874,114.82660963695191,60.686738836841265
193.165,193.165,147.52156327801163,115.11574305860978,61.139268930895575
193.172,193.172,148.4983396822502,115.20528534036174,61.190441736312074
193.178,193.178,148.60570914340403,115.23418382391144,61.46016733729139
193.185,193.185,149.18250980977953,115.30942230717478,61.95228334881384
193.192,193.192,150.232268328584,115.37648700023348,62.567168260721914
193.199,193.199,151.55249240319037,115.39840682375045,63.216285501092926
193.205,193.205,152.9719850912465,115.44451389529155,63.82975001687655
193.212,193.212,154.3612404494275,115.57011026687545,64.36030317368545
193.219,193.219,155.63257564486236,115.77589904509804,64.78398543283782
193.226,193.226,156.7334925492697,116.05177564374176,65.09722202249186
193.232,193.232,157.63820107288902,116.3778935454282,65.31105417928215
193.239,193.239,158.3417894322868,116.72737219425846,65.44459139579943
193.246,193.246,158.858652246978,117.07001544137307,65.51983620076972
193.253,193.253,159.22316880212892,117.37658632273177,65.55892430102386
193.259,193.259,159.48873753977264,117.62326126992524,65.5835356734286
193.266,193.266,159.72246412329136,117.79502919477304,65.61532405173773
193.273,193.273,159.99578807034078,117.8863789937036,65.67597241279545
193.28,193.28,160.3739722203757,117.89902295698543,65.78610877952113
193.286,193.286,160.9077790970498,117.95956925506796,65.96318770891611
193.293,193.293,161.62894611265068,118.08637330647534,66.21879056412257
193.3,193.3,162.54936922388762,118.27179669243529,66.5559986111371
193.307,193.307,163.66299240420435,118.50758999043752,66.96790264497321
193.313,193.313,164.94891988096225,118.78548665772938,67.4381875585835
193.32,193.32,166.37464532998294,119.09802515888944,67.9437650664539
193.327,193.327,167.8994796979261,119.43864557387762,68.45851722790329
193.334,193.334,169.47877303915226,119.80070542833153,68.95705612635197
193.34,193.34,171.0686152087836,120.17586374669862,69.41771142412578
193.347,193.347,172.6297300295453,120.55250241379754,69.82432873510122
193.354,193.354,174.12956337612175,120.9144800599657,70.16689935396539
193.361,193.361,175.54248643910756,121.24030458400999,70.44139873490028
193.367,193.367,176.84847114523933,121.50290056848495,70.64922480525387
193.374,193.374,178.03057857272023,121.6698785547185,70.79639137575512
193.381,193.381,179.07177499191351,121.70390022418086,70.89233211833911
193.388,193.388,179.9516124246531,121.84455968715521,70.94809536385957
193.394,193.394,180.6429896539723,122.20461719028512,70.9742137528227
193.401,193.401,181.11003675233164,122.829482741338,70.97895000264774
193.408,193.408,181.30845413775074,123.76428038123126,70.99067664350319
193.415,193.415,181.43003208197766,125.05956540812882,71.02444563908024
193.421,193.421,181.9415983830833,126.7843511850586,71.11555892308353
193.428,193.428,182.97144461824075,129.0217313783641,71.3361854390473
193.435,193.435,184.72759543556015,131.8117138298259,71.7654453947781
193.442,193.442,187.418077167463,135.06935261299188,72.44758011139538
193.448,193.448,191.09889187673085,138.56456806909262,73.3705734920966
193.455,193.455,195.58210910215564,141.99204188214233,74.46439798984288
193.462,193.462,200.46692895370066,145.07262163205934,75.61414137949612
193.469,193.469,205.24606613888733,147.6191334772985,76.68802772231538
193.475,193.475,209.4231813441496,149.54423208232012,77.57072222985452
193.482,193.482,212.60943954039627,150.8331998258798,78.18790395422576
193.489,193.489,214.58481528143557,151.51526004527503,78.51498717915759
193.496,193.496,215.3137956514863,151.64697181254607,78.57134041176052
193.502,193.502,215.7118865031793,151.98956311750595,78.73696730392288
193.509,193.509,217.0208380420412,152.71588805659357,79.06333064351185
193.516,193.516,218.98843971348924,153.72609625892923,79.49071602550383
193.523,193.523,221.3721267882687,154.91785890114545,79.96953751022174
193.529,193.529,223.9644807763958,156.19454405728519,80.46374566645824
193.536,193.536,226.60184804502552,157.4729133549624,80.95061716458568
193.543,193.543,229.1620563139889,158.68818923017028,81.41837383694524
193.55,193.55,231.55822971020848,159.7958557162129,81.86277074508568
193.556,193.556,233.73400653003316,160.77083787097348,82.28372007872395
193.563,193.563,235.660952156853,161.6047581539269,82.68274495208765
193.57,193.57,237.33592891594176,162.30187037789958,83.06140439061514
193.577,193.577,238.77624966605526,162.87405718729465,83.42007483696007
193.583,193.583,240.01154691447965,163.33524700762806,83.7565112829286
193.59,193.59,241.07336017761983,163.69677210642246,84.06482576190079
193.597,193.597,241.9862661759199,163.96523691682629,84.33616568006464
193.604,193.604,242.76429582736003,164.14200336796029,84.56120405404137
193.61,193.61,243.4126331232636,164.22251899903907,84.73321517831585
193.617,193.617,243.9329887378774,164.2526827562818,84.85210992704992
193.624,193.624,244.32718514940012,164.4302283906138,84.92600947505639
193.631,193.631,244.5809020219401,164.82658968215284,84.95948587511103
193.637,193.637,244.62337010839252,165.53275746987106,84.98236169920139
193.644,193.644,244.93830612227788,166.60672891966453,85.09491922270233
193.651,193.651,245.7803591263179,168.02120367998893,85.3270116590507
193.658,193.658,247.23935752061234,169.65669559643575,85.6862622064215
193.664,193.664,249.24502797676672,171.34131152514973,86.14767458850231
193.671,193.671,251.56862795351378,172.9050883576837,86.65487162541152
193.678,193.678,253.89933858772022,174.21874473794892,87.13532182840467
193.685,193.685,255.94119706193223,175.2070285736506,87.52176590818645
193.691,193.691,257.48523967781824,175.846016957071,87.7692626365978
193.698,193.698,258.44006312346943,176.15537051768936,87.86229036379903
193.705,193.705,258.82174945368035,176.18840770776563,87.91251788447924
193.712,193.712,258.9254258811455,176.3574404593513,88.07628596134182
193.718,193.718,259.3955629626985,176.64864405267954,88.31457735924353
193.725,193.725,260.1140021779432,176.99268112867938,88.58686292028459
193.732,193.732,260.9833028084104,177.34526979856963,88.85709893091312
193.739,193.739,261.9370556915412,177.69605407206856,89.09829037807853
193.745,193.745,262.94367277739275,178.0684505047171,89.29557132592251
193.752,193.752,264.00464409336354,178.51080078210484,89.44715103093154
193.759,193.759,265.14640741633366,179.08235782910344,89.5625652820196
193.766,193.766,266.4062483207943,179.8370814210193,89.6585032096647
193.772,193.772,267.81534040077054,180.80708470277114,89.75341046039138
193.779,193.779,269.386592274104,181.9843624224153,89.86338333343915
193.786,193.786,271.10480427493445,183.28979968753504,89.99898998848371
193.793,193.793,272.88488687376895,184.5426043936708,90.15766159962271
193.799,193.799,274.5056074572597,185.495502080215,90.31563593825611
193.806,193.806,275.6262541436445,185.94600876717277,90.43079981207072
193.813,193.813,275.9285005380729,186.06923609237194,90.45543991609163
193.82,193.82,276.5925945632402,186.70274172261526,90.55801338178894
193.826,193.826,278.14972172581776,187.6853200041,90.79729764629548
193.833,193.833,280.3430308570013,188.8053184566396,91.14888516446037
193.84,193.84,282.81534825866044,189.85594909787775,91.5609711528387
193.847,193.847,285.2014660807725,190.6811467206527,91.96803071387026
193.853,193.853,287.201135963117,191.19620027821006,92.3057769283088
193.86,193.86,288.6213025656699,191.38625655711184,92.524267279735
193.867,193.867,289.3895810816282,191.4808873284982,92.59642756486481
193.874,193.874,289.5442268625548,191.78563971694436,92.67218661347624
193.88,193.88,289.8815645111755,192.2128958808932,92.87477814197511
193.887,193.887,290.5421702379466,192.67921477593958,93.16736977003637
193.894,193.894,291.34732882134523,193.1167026126649,93.50639370806935
193.901,193.901,292.1394342179083,193.47877240993853,93.85014460430148
193.907,193.907,292.8031484439405,193.74149926013567,94.16508264434562
193.914,193.914,293.27478175224053,193.90166864530124,94.429154800903
193.921,193.921,293.54009769777815,193.97244465727323,94.63232863260247
193.928,193.928,293.6235348229884,193.97768437282522,94.77494616843896
193.934,193.934,293.6737547443097,194.00931542468732,94.86472018149769
193.941,193.941,293.8006116986646,194.0494636945038,94.91327820232151
193.948,193.948,293.9503694997883,194.0740130936793,94.93307139345343
193.955,193.955,294.0801813900524,194.08228528386516,94.93519375423377
193.961,193.961,294.1613453998074,194.13237107684958,94.9421249756992
193.968,193.968,294.1793300146291,194.22501806123316,94.95222178628372
193.975,193.975,294.22691332344687,194.35395472685565,94.96205820846536
193.982,193.982,294.33333293476926,194.50812888874796,94.97021626923694
193.988,193.988,294.48579235224565,194.67445519854152,94.97688281769561
193.995,193.995,294.6679609058726,194.8404674232708,94.98356857438445
194.002,194.002,294.8620276344645,194.99643394548943,94.99285237652022
194.009,194.009,295.05064497032083,195.13664932441165,95.00802360543936
194.015,194.015,295.21883543622886,195.25975030597053,95.03259101609052
194.022,194.022,295.35547725998595,195.36812256955278,95.06970472221799
194.029,194.029,295.4540756278716,195.4666919873287,95.12156618155255
194.036,194.036,295.51289246379906,195.5614874686273,95.18891749761654
194.042,194.042,295.53450910647285,195.65829004285615,95.27070754866514
194.049,194.049,295.54428517494847,195.76157331649594,95.36403561531499
194.056,194.056,295.57804227464044,195.8739119244049,95.46443453426835
194.063,194.063,295.6283704315649,195.9959669790605,95.56645199306102
194.069,194.069,295.68890814395803,196.12692210766195,95.66439905718539
194.076,194.076,295.7546888454147,196.26506168517278,95.75310287754093
194.083,194.083,295.8219857813163,196.40826550508368,95.82852093650264
194.09,194.09,295.8879646746003,196.55437891648117,95.88812755368683
194.096,194.096,295.95039016262115,196.70148361761807,95.931027155176
194.103,194.103,296.00751977727384,196.8480620429379,95.95779407033027
194.11,194.11,296.05821813807785,196.9930525472082,95.97010449136094
194.117,194.117,296.10216162805904,197.1358456852513,95.97027182931326
194.123,194.123,296.1398980632423,197.27627842908626,95.9797518732982
194.13,194.13,296.17269783031145,197.41461848556594,95.99656545581887
194.137,194.137,296.20237692994124,197.5514932423331,96.01880161306012
194.144,194.144,296.2312212072423,197.6877673288205,96.04502896415934
194.15,194.15,296.2619029667885,197.82442062225329,96.07426729099284
194.157,194.157,296.2972515182163,197.96245317594824,96.10588737402725
194.164,194.164,296.33997973863586,198.10277749531096,96.1394557100454
194.171,194.171,296.3925685036585,198.24606639949567,96.17454745609874
194.177,194.177,296.45728874305416,198.3926309226534,96.21056676682448
194.184,194.184,296.53618619715695,198.54241519587862,96.24662246278952
194.191,194.191,296.6309369671208,198.69509040258532,96.28151029762508
194.198,194.198,296.7425315318392,198.85018449505202,96.31383418432428
194.204,194.204,296.8707655030613,199.00720230102957,96.34224763475194
194.211,194.211,297.01372035650576,199.16569267358793,96.36573809881372
194.218,194.218,297.1676030949395,199.32522210855555,96.38384761502513
194.225,194.225,297.32716513537315,199.48527046247847,96.39674570939177
194.231,194.231,297.4865706333402,199.64514413847334,96.40513147007663
194.238,194.238,297.64037799899467,199.8040063846238,96.41000092162385
194.245,194.245,297.78436265562345,199.96103379004697,96.41234481840995
194.252,194.252,297.91607807799346,200.1156085888521,96.41285495195667
194.258,194.258,298.0351465335168,200.26744370640625,96.4139955311382
194.265,194.265,298.1432619719878,200.41660675094084,96.41719782820029
194.272,194.272,298.243823803881,200.56346863260504,96.42341313823789
194.279,194.279,298.34116129584856,200.70862052525095,96.43393046910303
194.285,194.285,298.43952638295417,200.8527884660271,96.4500518286782
194.292,194.292,298.54221620122183,200.99673236392417,96.47272899890696
194.299,194.299,298.65110541763113,201.14111464454163,96.50225446960688
194.306,194.306,298.76659185088744,201.28637709082471,96.5380678701455
194.312,194.312,298.8877780448615,201.4326721284142,96.57872812273453
194.319,194.319,299.01273393189734,201.5798511854326,96.6220828550991
194.326,194.326,299.13877369942105,201.72749422729095,96.66560155979356
194.333,194.333,299.26274889926026,201.87497255828265,96.70677879020907
194.339,194.339,299.3813913126736,202.02154723441902,96.74350197565137
194.346,194.346,299.4917177577983,202.16649976216706,96.77432044656574
194.353,194.353,299.59147947212284,202.30926583599464,96.79860216510683
194.36,194.36,299.67958864105793,202.44952955236224,96.81656912830475
194.366,194.366,299.756359546825,202.58724562414653,96.82920819310444
194.373,194.373,299.8234154556526,202.72258695689465,96.83808155839992
194.38,194.38,299.8832988790181,202.8558464000417,96.84507014363327
194.387,194.387,299.93895320560887,202.9873255971963,96.85209481316956
194.393,194.393,299.99320039753326,203.11724834760454,96.8608687347397
194.4,194.4,300.04827291569296,203.2457324834039,96.872707091773
194.407,194.407,300.1054407921498,203.37280259912004,96.88839368164086
194.414,194.414,300.16477015680533,203.49839973766242,96.90809451011434
194.42,194.42,300.225050570575,203.6223846119246,96.93131301905798
194.427,194.427,300.28392351286436,203.74455814329707,96.95691425946944
194.434,194.434,300.33824820242086,203.86471416847039,96.98326158167026
194.441,194.441,300.38472716447234,203.98271823900802,97.0084652044894
194.447,194.447,300.42070098724935,204.09857622236174,97.0306853301286
194.454,194.454,300.4448865258277,204.2124489612491,97.04840999884794
194.461,194.461,300.4578455541463,204.32461090930457,97.06063380841563
194.468,194.468,300.46209131221406,204.43539553270853,97.06690733086818
194.474,194.474,300.4623819765651,204.54515116063777,97.0672896710838
194.481,194.481,300.46271014353476,204.654187521151,97.07233131176352
194.488,194.488,300.46880785438816,204.76271276772667,97.08205414274606
194.495,194.495,300.48475161664857,204.87078450072374,97.09557757370003
194.501,194.501,300.51263530846063,204.97825414932063,97.11200037151411
194.508,194.508,300.552029171901,205.08467416380913,97.13049659725202
194.515,194.515,300.59988294804407,205.18922129975718,97.15038572350655
194.522,194.522,300.65079272547933,205.2907299475611,97.17116032051318
194.528,194.528,300.69754733678593,205.38783362090328,97.19247858307904
194.535,194.535,300.73203551594577,205.4791375908065,97.21415151134666
194.542,194.542,300.74664187865466,205.56340691306806,97.2361534106972
194.549,194.549,300.7572813657409,205.63980044615317,97.2586770059891
194.555,194.555,300.7946059484714,205.70814825771896,97.28221108082073
194.562,194.562,300.8549862542481,205.76921775386094,97.30756059807092
194.569,194.569,300.9294013565657,205.82482457043062,97.33576357540011
194.576,194.576,301.0042905928792,205.87759086790027,97.36795057126503
194.582,194.582,301.06387083242106,205.93035075837946,97.40522340195344
194.589,194.589,301.0935160199771,205.98555619865988,97.44859263398097
194.596,194.596,301.10387288790656,206.04499111591372,97.49893305403218
194.603,194.603,301.15723393257827,206.10972296058034,97.55685975904656
194.609,194.609,301.2484188676087,206.18013098915802,97.6224969117031
194.616,194.616,301.36447683709576,206.25599084293714,97.6952463061488
194.623,194.623,301.4865141264544,206.3366889483693,97.77368912034423
194.63,194.63,301.5924386131158,206.42153683935626,97.85569479459798
194.636,194.636,301.65966083049483,206.5099464308484,97.93877114133522
194.643,194.643,301.6672146343282,206.6013568569013,98.02057059689889
194.65,194.65,301.7367019717975,206.69503195855623,98.09933243082602
194.657,194.657,301.8945898974695,206.78984667750802,98.17404716168649
194.663,194.663,302.1434140081024,206.88413582658654,98.24423438457893
194.67,194.67,302.4746931150282,206.97550897302483,98.30943893038052
194.677,194.677,302.8686003358412,207.06055439254146,98.36866246653977
194.684,194.684,303.2960230379239,207.13476644594465,98.41997626210767
194.69,194.69,303.7228724926751,207.19298113230346,98.46069173061701
194.697,194.697,304.1157663251463,207.2302170807894,98.48811944756129
194.704,194.704,304.4477997016943,207.24301089572594,98.50044924979728
194.711,194.711,304.7036084473504,207.25489685459948,98.50334602002978
194.717,194.717,304.8826430238237,207.287436980505,98.51919945502726
194.724,194.724,304.9988676031408,207.33268961682694,98.54313636804604
194.731,194.731,305.0764728958585,207.38015388873825,98.56833456092122
194.738,194.738,305.1434990049886,207.4186408414169,98.58722798663466
194.744,194.744,305.2256243439768,207.43828460387647,98.59272518771219
194.751,194.751,305.34154551296075,207.44437526840045,98.60638381643093
194.758,194.758,305.50102436740514,207.47892920793953,98.64327347954348
194.765,194.765,305.70559919674344,207.53924939666487,98.70587419563545
194.771,194.771,305.9501911458521,207.6159716678642,98.79538519964125
194.778,194.778,306.2242385174428,207.69325724607145,98.91172627542535
194.785,194.785,306.5126196869008,207.75138560014778,99.05293616150664
194.792,194.792,306.79656886257453,207.7709255680823,99.21459653544349
194.798,194.798,307.05459485708667,207.80508279264154,99.38996394412962
194.805,194.805,307.26415942377423,207.9008644212928,99.57073495899067
194.812,194.812,307.40458016937106,208.0575353090921,99.74804412382852
194.819,194.819,307.4602659415787,208.2658167818474,99.91340512906687
194.825,194.825,307.4975320726858,208.5096132429543,100.05943296748048
194.832,194.832,307.62772895168774,208.76874879832513,100.18029155491391
194.839,194.839,307.84315285481904,209.02202242694494,100.27189317642184
194.846,194.846,308.13028722648454,209.25006200092454,100.33189728790902
194.852,194.852,308.4724219355857,209.43749593560227,100.3595503507135
194.859,194.859,308.85230123750904,209.574132400878,100.36363547256535
194.866,194.866,309.25422522184556,209.65517037539544,100.39762967816847
194.873,194.873,309.665066043652,209.6806913620316,100.45854085382012
194.879,194.879,310.0741936441862,209.70665583556618,100.54225716161255
194.886,194.886,310.472992744534,209.77721800716645,100.64369397763218
194.893,194.893,310.8545134363928,209.88365637294658,100.75711430502126
194.9,194.9,311.2132771823119,210.0162973173728,100.87659380800709
194.906,194.906,311.54513541936393,210.16539705898305,100.99650888888668
194.913,194.913,311.8471865798399,210.32203571958215,101.11193595298683
194.92,194.92,312.1177363901936,210.4788262989264,101.2189283071949
194.927,194.927,312.356221528531,210.63031123350424,101.31467693001571
194.933,194.933,312.56310074687735,210.77303522528337,101.3975768117565
194.94,194.94,312.73978533536933,210.9053224350456,101.46721511844808
194.947,194.947,312.8886023922056,211.02683209845935,101.52427692695511
194.954,194.954,313.0127662001026,211.1380300554711,101.57039901507366
194.96,194.96,313.1163465322098,211.2397463762387,101.60806510906369
194.967,194.967,313.2041803071776,211.33294948987142,101.64061538515668
194.974,194.974,313.2816972667215,211.41871919993318,101.67232862077175
194.981,194.981,313.3545662624194,211.49826822303828,101.70847091904595
194.987,194.987,313.4280835726377,211.5728793424845,101.7552550813842
194.994,194.994,313.50676336843435,211.6436860261289,101.81965725878462
195.001,195.001,313.5947779766813,211.7114196884214,101.90897088319213
195.008,195.008,313.6969204502765,211.7764956936801,102.03013098784206
195.014,195.014,313.8192997684136,211.83954662126038,102.18914461973148
195.021,195.021,313.9699707889621,211.90204150998346,102.3909325683777
195.028,195.028,314.1598790456174,211.96673222862316,102.63951886357437
195.035,195.035,314.4032956135369,212.0378903761389,102.9382604194483
195.041,195.041,314.7166704660922,212.12117955051002,103.28982881685177
195.048,195.048,315.1161081364263,212.22303515741086,103.6958366015888
195.055,195.055,315.6147640619393,212.349780516833,104.15634253596765
195.062,195.062,316.2209051406083,212.5068670177913,104.6696476443813
195.068,195.068,316.936140305915,212.69814500572855,105.23253536433447
195.075,195.075,317.7535909011794,212.92473018057052,105.84074322835818
195.082,195.082,318.65698270170515,213.18354166367482,106.48922447621271
195.089,195.089,319.62172162624836,213.46600664119376,107.17175148220595
195.095,195.095,320.6178338741625,213.75727674472876,107.87976029446205
195.102,195.102,321.6136162528985,214.03614312636336,108.60087820066471
195.109,195.109,322.5786426759171,214.27576410215116,109.31794109957632
195.116,195.116,323.4851740842568,214.4452882805228,110.00918390999472
195.122,195.122,324.30808439376125,214.51237986684956,110.64977888264488
195.129,195.129,325.02468207020553,214.5782523823771,111.21441073990584
195.136,195.136,325.61593313140673,214.80201021801977,111.68025565153667
195.143,195.143,326.0692485231682,215.19934851142543,112.02971855265184
195.149,195.149,326.38158339526206,215.77462575960547,112.25262562432486
195.156,195.156,326.5614361178682,216.52115053411165,112.34779531997069
195.163,195.163,326.62888576149254,217.4231108699385,112.37179785581876
195.17,195.17,326.64467111125816,218.45731766654634,112.49701776419256
195.176,195.176,326.71034907189136,219.5943664103759,112.69764296221985
195.183,195.183,326.79445213798476,220.8007400114272,112.94273485938592
195.19,195.19,326.8734261978345,222.04230982733628,113.20051765178505
195.197,195.197,326.93756500308126,223.28769710148754,113.44399705607805
195.203,195.203,326.9959125427386,224.51032592106895,113.6561268139805
195.21,195.21,327.0776243186657,225.68900729844364,113.83243793365682
195.217,195.217,327.2280669197641,226.80689612545743,113.98051463212222
195.224,195.224,327.500253173982,227.8491286398438,114.11689729222832
195.23,195.23,327.94393953479346,228.80042645037315,114.26234542587363
195.237,195.237,328.5954485035358,229.64392272539132,114.43683569230994
195.244,195.244,329.4708941648194,230.3616986417443,114.65572022888163
195.251,195.251,330.56412671726525,230.93682823953856,114.92775043173887
195.257,195.257,331.8492681308636,231.35598999729677,115.25498513108155
195.264,195.264,333.28659473631194,231.61143973445454,115.63421399922314
195.271,195.271,334.82963162983583,231.70186873340796,116.05924657314884
195.278,195.278,336.43126941711665,231.77134199190996,116.52332240650212
195.284,195.284,338.04794495721967,231.98980561957214,117.02097296637237
195.291,195.291,339.64234924140646,232.34177114794622,117.54885785799253
195.298,195.298,341.1853241365127,232.80890272399756,118.10548512239396
195.305,195.305,342.6568952132741,233.37205708606302,118.6901392414711
195.311,195.311,344.0461827056424,234.01329717654951,119.30151843188301
195.318,195.318,345.35043731556885,234.71746106755847,119.93656081292082
195.325,195.325,346.57360581758013,235.4729831816375,120.58982093537585
195.332,195.332,347.7243980995651,236.27191295008168,121.25350739244364
195.338,195.338,348.8137974412563,237.10929230147767,121.91796262901681
195.345,195.345,349.85260046199994,237.9821716306388,122.57221825092704
195.352,195.352,350.8496587269965,238.88848741465065,123.20447616243912
195.359,195.359,351.8106644150042,239.82593369889048,123.80274288250492
195.365,195.365,352.73701300925916,240.79101955950242,124.35597773519626
195.372,195.372,353.62502670859254,241.77849939668238,124.85590145701961
195.379,195.379,354.46640947746397,242.78117193378108,125.29917524635204
195.386,195.386,355.2503457385221,243.789921162966,125.68922478521176
195.392,195.392,355.96667446281583,244.79391590002223,126.03695373295932
195.399,195.399,356.6089769104429,245.78096755952183,126.35998347145124
195.406,195.406,357.1765469853641,246.73804949024378,126.68051515295632
195.413,195.413,357.6749842453748,247.65191016078015,127.02220811043063
195.419,195.419,358.11558908733696,248.509706335039,127.40642226594521
195.426,195.426,358.5131412148716,249.29967329037945,127.84818831669394
195.433,195.433,358.8819000713361,250.0119141985661,128.35280226172395
195.44,195.44,359.23012108442634,250.6415683243896,128.91223352486537
195.446,195.446,359.5457662631605,251.1948874860996,129.49749750233042
195.453,195.453,359.7575699907891,251.68625873426132,130.04558356851658
195.46,195.46,359.8392758423202,252.1141734665677,130.44591898539105
195.467,195.467,360.54590656921164,252.426141038433,130.5465697539061
195.473,195.473,362.252175144452,252.5128363927292,130.8847740553361
195.48,195.48,365.156550086805,252.75184588422525,131.70667616662826
195.487,195.487,369.11162041880965,253.31622679977528,132.9266057845962
195.494,195.494,373.6700360513128,254.0909455070822,134.3658414398503
195.5,195.5,378.2817988789331,254.9101683155686,135.8160034706151
195.507,195.507,382.4563419555555,255.61719271450096,137.08576222741473
195.514,195.514,385.82306689828766,256.0939037155938,138.03250279132618
195.521,195.521,388.1504283421334,256.2761515911351,138.58388546938605
195.527,195.527,389.3646771310326,256.39426255231126,138.74175398925001
195.534,195.534,389.55056438134267,256.7689775720682,138.9152158942898
195.541,195.541,390.18270547870225,257.32487825303406,139.32141994446775
195.548,195.548,391.35199112690725,257.9770413021619,139.8511390542445
195.554,195.554,392.7640462720919,258.65022683261384,140.4048886986066
195.561,195.561,394.1563956765524,259.2901926615174,140.9055064773378
195.568,195.568,395.3284798259345,259.868195431888,141.30401674629823
195.575,195.575,396.15731296967857,260.380958791452,141.5795985286049
195.581,195.581,396.5990361996936,260.8457245633722,141.73477812161468
195.588,195.588,396.6776878798583,261.2899633966399,141.7884363506055
195.595,195.595,396.88890028691884,261.7385557350651,141.80765989564225
195.602,195.602,397.28774199401624,262.2038057847356,141.86679481069447
195.608,195.608,397.76193627001237,262.6820568154702,141.9330309729261
195.615,195.615,398.2064544700867,263.1549661584627,141.97715877862706
195.622,195.622,398.5359107200526,263.589105932587,141.97916229986274
195.629,195.629,398.68641591126317,263.9286751328359,142.04629425042762
195.635,195.635,398.765119428017,264.0860752536402,142.1906416854332
195.642,195.642,399.1160481490488,264.2219139282091,142.41205661717925
195.649,195.649,399.7694969262165,264.74799645575206,142.69551204449863
195.656,195.656,400.72615837480953,265.70470588854226,143.01476540329247
195.662,195.662,401.94106339587256,267.0593436258274,143.33890561606003
195.669,195.669,403.32386129979864,268.71345591511965,143.6382842007242
195.676,195.676,404.7574668366924,270.5176956659248,143.88825696050935
195.683,195.683,406.1220088263497,272.29408356955514,144.07025005642117
195.689,195.689,407.3136043184816,273.86891777032133,144.17142003003158
195.696,195.696,408.25745602835786,275.1065622244366,144.18448804476287
195.703,195.703,408.9162392195675,275.9314441244984,144.26096047105568
195.71,195.71,409.2924012291325,276.3344339395544,144.4222033006941
195.716,195.716,409.4239159837652,276.3658765709047,144.65718137792666
195.723,195.723,409.47324888662683,276.61263964642905,144.94916554320517
195.73,195.73,409.62665054625995,277.0220776945689,145.27656676527
195.737,195.737,409.8070171623485,277.47653109314314,145.61376940178704
195.743,195.743,409.9469412246501,277.8725684049788,145.93281125917417
195.75,195.75,409.995305760993,278.1321167375646,146.2065134122178
195.757,195.757,410.06996151784176,278.207765856856,146.41215133116205
195.764,195.764,410.2785367874577,278.3324027934172,146.534306460515
195.77,195.77,410.61223608585436,278.64595607670316,146.5660752851081
195.777,195.777,411.044901585853,279.1151468507326,146.62365269324548
195.784,195.784,411.5362253607403,279.69186129930284,146.76306134187814
195.791,195.791,412.0349609153166,280.32016408584064,146.97129007042471
195.797,195.797,412.48193826612163,280.94288840787914,147.22962025498634
195.804,195.804,412.81346655164475,281.5085264944628,147.51282299898304
195.811,195.811,412.9672035338474,281.97880002439956,147.79006915037917
195.818,195.818,413.04115728614244,282.33480678344284,148.0300750858109
195.824,195.824,413.36577563267235,282.5783344376984,148.20927380758886
195.831,195.831,413.9263099910086,282.72729514088195,148.31774656965857
195.838,195.838,414.6695733482894,282.8075063572005,148.35911030783345
195.845,195.845,415.51466445264384,282.8441754594149,148.37249860736577
195.851,195.851,416.37039052516167,282.85549138478416,148.42504166357998
195.858,195.858,417.1519927767664,282.86161863507544,148.50155688694892
195.865,195.865,417.7925083065165,282.88749497450084,148.5889879503677
195.872,195.872,418.2477573145685,282.943049789633,148.677209223043
195.878,195.878,418.49594623778904,283.04236528508983,148.7596879864892
195.885,195.885,418.5340195631137,283.20068756182974,148.83396404663088
195.892,195.892,418.69536291867456,283.4322878834664,148.90133966835467
195.899,195.899,419.0374216005837,283.74901148756254,148.96539476574418
195.905,195.905,419.53969798263535,284.15945911431896,149.02981145685615
195.912,195.912,420.1853426701598,284.66884609734564,149.09641027968922
195.919,195.919,420.96473702598735,285.2791935741024,149.16378782199715
195.926,195.926,421.87685583771105,285.989228431252,149.22660441014494
195.932,195.932,422.9277318973179,286.79379808715186,149.27601756658652
195.939,195.939,424.125634782228,287.6832072565899,149.30171611563
195.946,195.946,425.47507361441114,288.6431917511052,149.3084873808985
195.953,195.953,426.9730303867652,289.6561422513581,149.35217943104823
195.959,195.959,428.6073224706073,290.7043814359936,149.43017574193934
195.966,195.966,430.34752056135954,291.77506032298425,149.52760111284022
195.973,195.973,432.105770370496,292.85720987176006,149.6040392173199
195.98,195.98,433.6616842506426,293.9172179665725,149.6348260521577
195.986,195.986,434.6282244463105,294.86513834415445,149.90161796773143
195.993,195.993,434.67783425885375,295.558584933276,150.5232887504744
196.0,196.0,435.9622279124624,295.8689075691187,151.5430796648413
196.007,196.007,438.35679707038383,295.98072137350925,152.9035757811365
196.013,196.013,441.4894580103971,296.451016504343,154.46731810990093
196.02,196.02,444.9179338714604,297.157995232894,156.05566897830616
196.027,196.027,448.23116682472033,297.96868835833754,157.4875550182479
196.034,196.034,451.08683351391375,298.765772627696,158.61235774862993
196.04,196.04,453.2441202707897,299.4625483178296,159.33222703859326
196.047,196.047,454.5916947394836,300.0110217091171,159.6110944968986
196.054,196.054,455.14738250815975,300.40159420285914,159.75066311268094
196.061,196.061,455.26621121756756,300.65527231381037,160.23977145026817
196.067,196.067,455.8850382317016,300.8131504281876,160.98006353896753
196.074,196.074,456.81246025787414,300.9272689446647,161.86120107113626
196.081,196.081,457.8717598213257,301.0534139109084,162.77711487222714
196.088,196.088,458.92250344282706,301.24669480930424,163.640413413754
196.094,196.094,459.8729920406174,301.56525381258945,164.39234116790448
196.101,196.101,460.6859247591872,302.08221110780016,165.00225611586313
196.108,196.108,461.3768370992793,302.8872759649078,165.4579071549039
196.115,196.115,462.0005270135648,304.0580601114232,165.7581989963674
196.121,196.121,462.6238823629637,305.6154887819024,165.91302681376362
196.128,196.128,463.2933695342775,307.5017437201368,165.94455643130655
196.135,196.135,464.01441675833007,309.59287845480924,166.0023446890058
196.142,196.142,464.75511602973694,311.72661976620554,166.10633472434458
196.148,196.148,465.46645550999864,313.73143456065554,166.21039720014332
196.155,196.155,466.100392081145,315.45579215611764,166.27413984372006
196.162,196.162,466.6178157722937,316.79371683296273,166.27733627504895
196.169,196.169,466.9913330907926,317.6997895567672,166.35595770443942
196.175,196.175,467.2083657447359,318.19056760682287,166.5006648731882
196.182,196.182,467.2745129845257,318.3341365900422,166.6885843281595
196.189,196.189,467.3350233579339,318.4357602663438,166.89000391805584
196.196,196.196,467.4833291338203,318.6663771431873,167.07575934745324
196.202,196.202,467.6726996097354,318.9139128529087,167.22371556305717
196.209,196.209,467.85591453956073,319.08481562195396,167.3228897786868
196.216,196.216,467.99203272855254,319.1132237893932,167.3744863488516
196.223,196.223,468.05121183268363,319.2615066446812,167.39019825751043
196.229,196.229,468.0854558442216,319.58968756230115,167.39171435050775
196.236,196.236,468.215108070934,320.07471066790686,167.394267151841
196.243,196.243,468.42617563653164,320.6748434558137,167.4207404344489
196.25,196.25,468.687793481191,321.3382441276818,167.4865214076797
196.256,196.256,468.953847900877,322.0108612670386,167.6007663937924
196.263,196.263,469.1678772695786,322.64323331034547,167.76525419296732
196.27,196.27,469.2717210450449,323.1960919583305,167.97370543264188
196.277,196.277,469.3248745378426,323.643674739165,168.21270176142815
196.283,196.283,469.55600477765495,323.9738292847074,168.4646294181495
196.29,196.29,469.95230053807137,324.1859266343857,168.7114229274767
196.297,196.297,470.47029349147886,324.28877588755444,168.9380717405635
196.304,196.304,471.0454996734597,324.2990960257048,169.13506070168376
196.31,196.31,471.6033248101652,324.3594495255942,169.29835134510225
196.317,196.317,472.0709427787076,324.46869862347705,169.42699616512624
196.324,196.324,472.38871137161306,324.611418965102,169.52069087248665
196.331,196.331,472.5169127185353,324.7829113738068,169.57912370080112
196.337,196.337,472.59775010086236,324.9894181388074,169.60303732140113
196.344,196.344,472.8906615360881,325.2446146437291,169.61026537933913
196.351,196.351,473.3869021274341,325.56457080379016,169.6417561215299
196.358,196.358,474.0696863523236,325.96286244526254,169.6875723600584
196.364,196.364,474.91676640620244,326.44661644535233,169.73627135358242
196.371,196.371,475.9021858935116,327.01401129241555,169.77693517298903
196.378,196.378,476.99747252770885,327.6536085510658,169.80103279059423
196.385,196.385,478.1723162171688,328.34541329693815,169.8037021702697
196.391,196.391,479.3948023458742,329.0629730798901,169.82301796723706
196.398,196.398,480.6314232973595,329.77575087037826,169.8604528004293
196.405,196.405,481.8472371695556,330.45131408281526,169.9080705422463
196.412,196.412,483.00640206798863,331.05703466586266,169.9547513929555
196.418,196.418,484.07263112512,331.55970590835256,169.9877929101373
196.425,196.425,485.00806032895207,331.9197913099335,169.99217978944134
196.432,196.432,485.7659787896501,332.0772681178947,170.04223386542938
196.439,196.439,486.2716737233554,332.2165712194567,170.19198553066454
196.445,196.445,486.4021528420287,332.7601696125532,170.49853141408346
196.452,196.452,486.80507068418865,333.75943798932127,171.00813155607926
196.459,196.459,487.86807752263763,335.14738523647566,171.7332357690568
196.466,196.466,489.5988736364765,336.7440115840745,172.63718555980083
196.472,196.472,491.8412505125081,338.3187785588131,173.6319950237596
196.479,196.479,494.3071054515586,339.66252084616207,174.5948705258883
196.486,196.486,496.66372195512247,340.6353696731965,175.39946080418486
196.493,196.493,498.62636999248,341.1823033706058,175.94805668666132
196.499,196.499,500.01993916939944,341.32570284318484,176.19248226596085
196.506,196.506,500.8012194683834,341.50468526548633,176.2452534774448
196.513,196.513,501.04751194215993,341.89014996721403,176.54101853225785
196.52,196.52,501.17498299862444,342.35748181217366,176.99563268491858
196.526,196.526,501.4801597303934,342.79679491943926,177.5157400480695
196.533,196.533,501.77875239029896,343.12912797682736,178.01702514223527
196.54,196.54,501.9311511806351,343.3134757599346,178.43642079135213
196.547,196.547,502.0052641385221,343.34612539266277,178.7375959152758
196.553,196.553,502.3284540560094,343.4374673622974,178.91069689733618
196.56,196.56,502.87684035552263,343.6031798148283,178.96767700935274
196.567,196.567,503.5953915908517,343.7833845213415,179.0005891445562
196.574,196.574,504.4143690056248,343.919294385791,179.09124140945553
196.58,196.58,505.2648195467778,343.961907935839,179.20875815716053
196.587,196.587,506.0904352925634,344.0468192420888,179.32875800800207
196.594,196.594,506.8549287032277,344.2776040747146,179.43714274567554
196.601,196.601,507.5468605419118,344.6593334433368,179.533350248983
196.607,196.607,508.18325129238735,345.18954254024436,179.6325634524876
196.614,196.614,508.80960981982304,345.86534714074406,179.76431854550611
196.621,196.621,509.4922680887332,346.6879501172896,179.96520526909225
196.628,196.628,510.3024748450287,347.6603671685476,180.26663680713696
196.634,196.634,511.29751669306165,348.77852170467975,180.6819154083445
196.641,196.641,512.5056719035962,350.02101370084847,181.19798559079814
196.648,196.648,513.9174709194582,351.34513301312336,181.77597079387587
196.655,196.655,515.4822551578769,352.6943133470857,182.3605585856766
196.661,196.661,517.1113787914621,354.01346491056614,182.89402824700835
196.668,196.668,518.691479271777,355.2613661763606,183.3293362409716
196.675,196.675,520.1065741406115,356.41372813045143,183.63827587313526
196.682,196.682,521.2612351821809,357.4603238698198,183.813700368803
196.688,196.688,522.0963574684068,358.40241313835617,183.86700562972308
196.695,196.695,522.594059141337,359.25177002535855,183.91128745325787
196.702,196.702,522.7739178345478,360.0283671364407,184.02186419895702
196.709,196.709,522.8629019348566,360.7555143756152,184.1665056306543
196.715,196.715,523.1515815282918,361.45439745289553,184.31660925628864
196.722,196.722,523.5599938363808,362.1399296813893,184.45026138959253
196.729,196.729,524.0060308389311,362.8184295729395,184.55369683376583
196.736,196.736,524.4128337315524,363.48694557635105,184.62145597263006
196.742,196.742,524.7150263241995,364.13413540839207,184.6557529190201
196.749,196.749,524.8642318443677,364.74247123750746,184.66508891452742
196.756,196.756,524.894747193574,365.29094690165215,184.66828746220898
196.763,196.763,525.1070138561175,365.75738869144436,184.67059424472
196.769,196.769,525.4779919483518,366.1199630361344,184.68104855230737
196.776,196.776,525.9633296616458,366.3580496973492,184.71305065948724
196.783,196.783,526.5056196139706,366.4530652843661,184.77184877997914
196.79,196.79,527.0452053183753,366.51634610356575,184.85935663533564
196.796,196.796,527.5306204370163,366.74807516379354,184.97457454831874
196.803,196.803,527.9265332544285,367.1519605687198,185.11410786192906
196.81,196.81,528.2176339604758,367.7246393718843,185.27303996603356
196.817,196.817,528.4100445446793,368.4563869374901,185.4452733760925
196.823,196.823,528.5364533793321,369.33582943934533,185.6218882691754
196.83,196.83,528.6616365751465,370.35966017192914,185.7913012622453
196.837,196.837,528.8647534166079,371.53855461218654,185.94685909173404
196.844,196.844,529.1832087470148,372.88661632418757,186.09632637721907
196.85,196.85,529.5504486688687,374.3984626706325,186.26065031534623
196.857,196.857,529.7874805827414,376.0341303255592,186.461244017891
196.864,196.864,529.9079486015613,377.72198226292534,186.7089753721198
196.871,196.871,530.5687554694374,379.3717474102566,187.0043167616102
196.877,196.877,531.8436812815148,380.88782446485897,187.34478902042397
196.884,196.884,533.6840279579901,382.1805061759829,187.73084093604763
196.891,196.891,535.9461961717851,383.17563784735574,188.16579414172568
196.898,196.898,538.4379395813905,383.8214118134987,188.65110905184324
196.904,196.904,540.9641644416491,384.09144501676104,189.18088345214306
196.911,196.911,543.3613760487773,384.19711276017887,189.7387951174845
196.918,196.918,545.5152741053176,384.65135583319824,190.29821935805688
196.925,196.925,547.3592472420321,385.4012495255432,190.8250154124572
196.931,196.931,548.8594012069818,386.3747045777883,191.28290308672098
196.938,196.938,549.9989811502671,387.4914106922971,191.6408609932182
196.945,196.945,550.7710987246495,388.67345922129425,191.880373644361
196.952,196.952,551.1801265778647,389.85348921550485,191.99987325361633
196.958,196.958,551.2487582702935,390.98033890117694,192.0148832739281
196.965,196.965,551.4711658322144,392.0219288598088,192.0756283681847
196.972,196.972,551.9048296304151,392.9655011003257,192.17641518769392
196.979,196.979,552.4442871222637,393.8158485848199,192.28104786395738
196.985,196.985,552.9712852279334,394.59195316064466,192.3581259740522
196.992,196.992,553.3722434791506,395.3222292159393,192.3845221519195
196.999,196.999,553.5553917447954,396.03888134175935,192.42210100974188
197.006,197.006,553.6477454633848,396.77248535168474,192.52724394082946
197.012,197.012,554.0343817330418,397.5479235016848,192.69506409695248
197.019,197.019,554.69744014591,398.38210476627467,192.91395536932592
197.026,197.026,555.5894374150029,399.2833271444088,193.16736993059067
197.033,197.033,556.6425529596434,400.25195566703917,193.4351470461246
197.039,197.039,557.7784672178292,401.28174762290695,193.69461114094742
197.046,197.046,558.9175764861078,402.36102812041656,193.92225982397872
197.053,197.053,559.9865980897964,403.4737399717238,194.09637238197308
197.06,197.06,560.9240043128505,404.6010177249387,194.20008473398522
197.066,197.066,561.6836094323393,405.723282213729,194.2240938180503
197.073,197.073,562.2371370563019,406.8221553102924,194.28002810817455
197.08,197.08,562.5763028936193,407.8817687058458,194.4071079448806
197.087,197.087,562.7140329158054,408.8895289602429,194.58885719967563
197.093,197.093,562.7445255456809,409.83645424715525,194.8035140004288
197.1,197.1,562.8936924211579,410.71703069524267,195.02704064134426
197.107,197.107,563.1023895682055,411.5285182498679,195.23614355252624
197.114,197.114,563.3107012532471,412.269859396584,195.41082048468607
197.12,197.12,563.4677013279644,412.94054105947697,195.53625437087445
197.127,197.127,563.5401561371896,413.53972448060716,195.60401976617507
197.134,197.134,563.5623531483852,414.06574713205333,195.61260460443344
197.141,197.141,563.665441549483,414.515888908865,195.65793658416845
197.147,197.147,563.8158425591505,414.8862971565449,195.74591022771443
197.154,197.154,563.9677667628357,415.1720970239111,195.8606353581227
197.161,197.161,564.0723626398378,415.367649678948,195.98364438470745
197.168,197.168,564.0884956968785,415.46269568398174,196.09472984201645
197.174,197.174,564.1938052064988,415.49244984787936,196.16353996308823
197.181,197.181,564.4875891912055,415.685220821763,196.19908203004604
197.188,197.188,565.1341559380311,416.07846725965,196.4459086734394
197.195,197.195,566.3854032067998,416.69701311871074,197.0324210442904
197.201,197.201,568.4774276236675,417.54510138993004,198.0548343454521
197.208,197.208,571.5180586015857,418.59209245994,199.5265800521572
197.215,197.215,575.4260108320174,419.7596219707718,201.35823441967452
197.222,197.222,579.9292657119761,420.9282292072648,203.3754727835993
197.228,197.228,584.6203356125928,421.97070600684305,205.3646651420567
197.235,197.235,589.0515064849936,422.79327154363966,207.1251504458358
197.242,197.242,592.8326210219702,423.3566793625441,208.5072262295903
197.249,197.249,595.6963218644617,423.6716065597933,209.42774038132774
197.255,197.255,597.5187462723345,423.78012897994313,209.86869372755385
197.262,197.262,598.3057447353613,423.8249665913083,209.87053033745866
197.269,197.269,598.4489542544306,423.9726444538455,210.23809170796224
197.276,197.276,599.3521281289209,424.17921416968625,210.87017379759774
197.282,197.282,600.8140596741024,424.40653870113084,211.65772132670614
197.289,197.289,602.6334021803776,424.6218236655398,212.49843417838846
197.296,197.296,604.6307662194737,424.79873371643754,213.3079683153088
197.303,197.303,606.6592885867367,424.91932497035083,214.02677425755516
197.309,197.309,608.606486030939,424.97604120783575,214.62213033581014
197.316,197.316,610.3913503238206,424.97921450906716,215.08546547108347
197.323,197.323,611.9591656040452,425.02730729826146,215.4262830247265
197.33,197.33,613.2771917721573,425.09665180361355,215.6651114196615
197.336,197.336,614.3344917799424,425.1586292491273,215.82778821056098
197.343,197.343,615.1456476134643,425.1849721208465,215.94216343498903
197.35,197.35,615.7542486455004,425.21585301178186,216.03681686180366
197.357,197.357,616.2313852905995,425.3135963085802,216.1403746505727
197.363,197.363,616.6666248915609,425.47412820929316,216.28014349813296
197.37,197.37,617.1524981470012,425.68206737096,216.47977617501311
197.377,197.377,617.7667139911938,425.91561279803284,216.75640286958307
197.384,197.384,618.5571399223015,426.1516748124633,217.11781891881392
197.39,197.39,619.5329727468446,426.3701718906226,217.56056797942148
197.397,197.397,620.664035492561,426.5571280496119,218.07000625742637
197.404,197.404,621.8889234839115,426.70589664362404,218.62287642575507
197.411,197.411,623.1302461528027,426.8159427134009,219.191793740325
197.417,197.417,624.3128889039002,426.8896594192597,219.75029745767114
197.424,197.424,625.3802019915661,426.9287561492056,220.2769614573961
197.431,197.431,626.3031277146661,426.93191544324526,220.75748584526164
197.438,197.438,627.079989987024,426.9693263653039,221.18474846813103
197.444,197.444,627.7294728980684,427.05406936326943,221.55769164330766
197.451,197.451,628.2817576123272,427.1936362011705,221.8798522400467
197.458,197.458,628.7709824645921,427.3954517538747,222.15779149009873
197.465,197.465,629.2293311433478,427.66667243652864,222.39947161907628
197.471,197.471,629.6822559976308,428.0141322178777,222.61275241846113
197.478,197.478,630.1453399273854,428.44424555079803,222.80424081788
197.485,197.485,630.6237172788744,428.9631709735767,222.9786008874315
197.492,197.492,631.1136637022493,429.57737521186505,223.13827998818388
197.498,197.498,631.6047795806521,430.2941420537519,223.28354127956382
197.505,197.505,632.0820838562113,431.1256982492154,223.41516223831613
197.512,197.512,632.5188190069476,432.10901576760114,223.5347937375449
197.519,197.519,632.8340910808105,433.335682706562,223.6255262583844
197.525,197.525,632.8409479603464,434.9385113271557,223.6264322094213
197.532,197.532,633.4859089817098,437.00178103505027,223.8094880780245
197.539,197.539,635.0652433288153,439.4708009660058,224.26008930962513
197.546,197.546,637.675371013061,442.1516770090348,225.01198396332248
197.552,197.552,641.123895415193,444.77954670849243,226.0309881413062
197.559,197.559,644.9780426672861,447.0882165504386,227.22055247048507
197.566,197.566,648.7000229663009,448.86098200374465,228.4474353913903
197.573,197.573,651.7935378632302,449.96719657313747,229.5747771304403
197.579,197.579,653.9132381672263,450.3839383220948,230.49044844443213
197.586,197.586,654.9214014986076,450.57189512805905,231.12514981207653
197.593,197.593,654.9519616768152,451.1998899858389,231.4588078640924
197.6,197.6,655.7839184850549,452.07010616727763,231.51570705036056
197.606,197.606,657.0949367136719,452.99588510698584,231.68007377853596
197.613,197.613,658.5632647587571,453.829827531187,231.99552619235638
197.62,197.62,659.9329071598979,454.4753533399014,232.3924671894296
197.627,197.627,661.0451763211669,454.8859456863609,232.812904483629
197.633,197.633,661.8396716807418,455.05646416924566,233.21615234150963
197.64,197.64,662.3369925211668,455.101156191377,233.57984533096658
197.647,197.647,662.6129154136379,455.31650583187064,233.89774735315402
197.654,197.654,662.7691488040356,455.64755428405863,234.17569769327497
197.66,197.66,662.9060700228117,456.03795433946135,234.42678998135676
197.667,197.667,663.1031212376904,456.4377646674202,234.66685240815468
197.674,197.674,663.4096278077872,456.80884808309395,234.91091174081131
197.681,197.681,663.8448333473367,457.12751640422283,235.17067501846768
197.687,197.687,664.4035451667112,457.3845024809429,235.45279923028954
197.694,197.694,665.0637046817536,457.58269371182024,235.75791093703586
197.701,197.701,665.7936759390101,457.73340687277755,236.08051421353335
197.708,197.708,666.5585900122873,457.8521564735487,236.4098498951038
197.714,197.714,667.3255472894447,457.9548411370319,236.7315265010868
197.721,197.721,668.0673334902507,458.054952860179,237.02956376107844
197.728,197.728,668.7644444210547,458.16197737854213,237.28855427755522
197.735,197.735,669.4054228282629,458.28091567211436,237.49573338740237
197.741,197.741,669.9855793050589,458.4127442175977,237.6426911942743
197.748,197.748,670.5046852670446,458.5554216143644,237.72643931610045
197.755,197.755,670.9649340385715,458.7049886669713,237.74963004556022
197.762,197.762,671.3701165017102,458.8565976354345,237.7793412320701
197.768,197.768,671.7257548464775,459.00551419420896,237.85055470594557
197.775,197.775,672.0393980736031,459.14800445169357,237.9496649363559
197.782,197.782,672.3206331081307,459.2818800997501,238.0624137189955
197.789,197.789,672.5807009163975,459.40657635547876,238.17530600836267
197.795,197.795,672.831566570534,459.5228305442561,238.27675259394718
197.802,197.802,673.0842390412776,459.6321420811185,238.35781353041247
197.809,197.809,673.3465753776927,459.7361959683389,238.41253365886078
197.816,197.816,673.6215053130618,459.83634897665115,238.43794452535812
197.822,197.822,673.9066834363523,459.93322308863327,238.44211171601953
197.829,197.829,674.1958344440206,460.0265353222632,238.4739247561593
197.836,197.836,674.4812572822972,460.1153717866401,238.52974039741773
197.843,197.843,674.7566582914635,460.1989207552965,238.604458992524
197.849,197.849,675.0197881191231,460.2774358808098,238.69169322930742
197.856,197.856,675.2747753677673,460.35317317240026,238.7844516625469
197.863,197.863,675.5336388674641,460.4310062456399,238.87674312749334
197.87,197.87,675.8159966771102,460.51837934594306,238.96565796608147
197.876,197.876,676.1470032821795,460.6244042665002,239.0528048693807
197.883,197.883,676.5546511100953,460.7581477504946,239.14403023882952
197.89,197.89,677.0667540076885,460.9263237680576,239.24707678472245
197.897,197.897,677.7067323424462,461.1306767430556,239.36782573257537
197.903,197.903,678.4883290183714,461.3656150562632,239.50649409009088
197.91,197.91,679.4114700984084,461.6170311002931,239.65523323848768
197.917,197.917,680.4618293780263,461.86270732284356,239.79768496254027
197.924,197.924,681.6148660330704,462.07343229821595,239.9098565016429
197.93,197.93,682.8419412868523,462.21363009950244,239.96174031059996
197.937,197.937,684.1127931014914,462.24353025256016,240.00303537210337
197.944,197.944,685.390247051852,462.35804812633995,240.16612766201237
197.951,197.951,686.6055071574664,462.6286897851684,240.46728434324567
197.957,197.957,687.605938532345,463.0342909799183,240.90978651802573
197.964,197.964,688.1332563903734,463.523831573358,241.48156415447903
197.971,197.971,688.364236769251,464.0242719680547,242.1393591037977
197.978,197.978,689.5275193727567,464.4495995676539,242.79922492360478
197.984,197.984,691.5884564514313,464.7190718628564,243.35411448345783
197.991,197.991,694.303729554146,464.78189762435966,243.7088115847499
197.998,197.998,697.3105544747539,464.9309710199256,243.8101629875808
198.005,198.005,700.2420254160309,465.2529218275887,243.96184686027829
198.011,198.011,702.8089451077805,465.6777875782152,244.32059936520477
198.018,198.018,704.8329769769545,466.12220210668994,244.81348978052384
198.025,198.025,706.2437097762325,466.50635237481396,245.361272787672
198.032,198.032,707.05823485256,466.768190367691,245.89489449754976
198.038,198.038,707.3564099064591,466.8727825433816,246.36516662213617
198.045,198.045,707.455741345518,466.93041226597364,246.74536749921708
198.052,198.052,707.8157826111252,467.12868437208203,247.02804091587993
198.059,198.059,708.2996013229582,467.4271368137199,247.2184666668062
198.065,198.065,708.7853717179876,467.7757005412037,247.3278134076293
198.072,198.072,709.1785355565657,468.1236065279903,247.36828605490624
198.079,198.079,709.4181299551162,468.4271100107633,247.3856519048215
198.086,198.086,709.4754783607349,468.6555627924857,247.45149637637945
198.092,198.092,709.6032228737243,468.79516966983044,247.55811806575838
198.099,198.099,709.8995736087141,468.8496172275653,247.69912348633912
198.106,198.106,710.3325481937156,468.8619269562168,247.86858609389324
198.113,198.113,710.8574390991166,468.9130792324264,248.06015647959808
198.119,198.119,711.4212068139605,468.97170477324477,248.26674397554652
198.126,198.126,711.9692365799687,469.0086202407178,248.4809343003723
198.133,198.133,712.4532133645497,469.01600403605414,248.69592473959315
198.14,198.14,712.8378039319183,469.08099540016775,248.9065790684619
198.146,198.146,713.1040886419023,469.2068609033532,249.11009949965697
198.153,198.153,713.2494780531509,469.38786203296803,249.30596319518128
198.16,198.16,713.2854164528591,469.6115981729792,249.49518072211677
198.167,198.167,713.3368819901789,469.8619763922661,249.67920836308662
198.173,198.173,713.4475681502909,470.12221955950315,249.8588170396138
198.18,198.18,713.5886237391671,470.3774916134594,250.03321653224958
198.187,198.187,713.736037765546,470.61666802276795,250.19976021352906
198.194,198.194,713.8747314603365,470.83286736457745,250.3541119616403
198.2,198.2,714.00114005182,471.0233977303622,250.49026500841532
198.207,198.207,714.1253568296667,471.1904926759722,250.60038838657889
198.214,198.214,714.2718592907507,471.34248838241206,250.67551130529827
198.221,198.221,714.475571986742,471.49322066940704,250.70760658351622
198.227,198.227,714.7718830382738,471.65876829139984,250.7230019158081
198.234,198.234,715.1835963798775,471.85332778989545,250.7847363602768
198.241,198.241,715.7108787878789,472.08657142799007,250.8850036888498
198.248,198.248,716.3295865329806,472.3632020630743,251.0094892563139
198.254,198.254,716.9988539360008,472.68335266390085,251.13888695402113
198.261,198.261,717.6691625686938,473.04129045863755,251.25146779710803
198.268,198.268,718.2725486583964,473.42149808534816,251.32580297530671
198.275,198.275,718.6982082758276,473.7948373585396,251.34466475587195
198.281,198.281,718.8006127103356,474.1190585227721,251.38753758900384
198.288,198.288,719.1353359881721,474.34799503418753,251.48294965772422
198.295,198.295,719.9206363762833,474.4489160421802,251.61094658080248
198.302,198.302,721.0631617985475,474.481076493173,251.7502579699706
198.308,198.308,722.4085242038904,474.6231094385805,251.88353554366932
198.315,198.315,723.7918783501681,474.83298435784906,251.99787674105724
198.322,198.322,725.0710719874362,475.0605780947872,252.08457963930783
198.329,198.329,726.1438165236417,475.2571674492598,252.13948668452804
198.335,198.335,726.9540657317565,475.38408818847563,252.16327771738293
198.342,198.342,727.490868125879,475.41897514737684,252.16540415696747
198.349,198.349,727.781262556368,475.4801159997368,252.18466567699144
198.356,198.356,727.8788042789082,475.62503979086983,252.2100636590927
198.362,198.362,727.9073332835724,475.8302688199182,252.230003688355
198.369,198.369,727.9942798113369,476.0671206803129,252.23386943441162
198.376,198.376,728.0806233192402,476.30728235735444,252.25437361592597
198.383,198.383,728.1222380177176,476.52712538044585,252.30404016152633
198.389,198.389,728.1514042224584,476.7104871825808,252.3833586048143
198.396,198.396,728.2605248279187,476.84984232129887,252.48873704788548
198.403,198.403,728.4483336422016,476.9456477751159,252.61381964495726
198.41,198.41,728.7107725093028,477.00403186414184,252.7511337300123
198.416,198.416,729.0436336651014,477.03395313215196,252.89345091504458
198.423,198.423,729.439535633421,477.0450811462569,253.0347690173236
198.43,198.43,729.8838778225402,477.04679265769926,253.17098794228735
198.437,198.437,730.353528269544,477.0479365218168,253.3003643019534
198.443,198.443,730.8189415364146,477.0568154475246,253.42365240349324
198.45,198.45,731.2486538877147,477.0810099682614,253.54365247786697
198.457,198.457,731.6144091196945,477.126942622964,253.66399660160445
198.464,198.464,731.8951534960738,477.19929493859445,253.7872157488899
198.47,198.47,732.0788120806174,477.3006048249981,253.91245350765084
198.477,198.477,732.161771143976,477.431298610989,254.03363985564434
198.484,198.484,732.1768269010889,477.58988736507075,254.1389943477565
198.491,198.491,732.2840363801296,477.7729610978031,254.21226276573012
198.497,198.497,732.4781886940991,477.97539591668954,254.2355543921315
198.504,198.504,732.7584137282204,478.1913317063565,254.27793701196498
198.511,198.511,733.1291795695832,478.41527760737387,254.39573459255288
198.518,198.518,733.5967465639745,478.6423720623534,254.59019779422707
198.524,198.524,734.1630398040091,478.86819290923694,254.8533958212665
198.531,198.531,734.8206396775122,479.0890569263286,255.1692145957849
198.538,198.538,735.5504729354377,479.30264060879676,255.51567627192097
198.545,198.545,736.3221932385403,479.50818661116557,255.86823610686332
198.551,198.551,737.097838529254,479.7063857622183,256.2032933747545
198.558,198.558,737.8390342276607,479.89963536417446,256.5008431377024
198.565,198.565,738.51573570165,480.09280499895476,256.74564586329205
198.572,198.572,739.1127887825736,480.29340105383227,256.92694489687034
198.578,198.578,739.6287802118471,480.5092501214346,257.03640781061233
198.585,198.585,740.057334451131,480.74320694936887,257.063603154551
198.592,198.592,740.3513738037187,480.9863939154878,257.1342310199338
198.599,198.599,740.4076103504777,481.2126363912982,257.3165780716285
198.605,198.605,740.7020767654145,481.38002765173275,257.6089008117978
198.612,198.612,741.388596246264,481.4447795155703,257.9879333041162
198.619,198.619,742.3984079578258,481.5083594214227,258.4162924079152
198.626,198.626,743.58474014202,481.6955044590059,258.853055277872
198.632,198.632,744.7846453805812,481.97288618177487,259.2600892243015
198.639,198.639,745.8650562372828,482.2902417097487,259.6053296991558
198.646,198.646,746.7404904416785,482.59370135345506,259.865575115026
198.653,198.653,747.3718744756791,482.83667064865136,260.0289790902061
198.659,198.659,747.7585098110578,482.98765814096697,260.0960841283943
198.666,198.666,747.928608060862,483.03431832980897,260.11345023403805
198.673,198.673,747.9294347709658,483.0855525248267,260.195076866716
198.68,198.68,748.0400385628199,483.21325837440776,260.3161721855803
198.686,198.686,748.1992949203709,483.38654168481435,260.45123212512715
198.693,198.693,748.3446481784181,483.57112667783207,260.5775296668279
198.7,198.7,748.4215586878131,483.73533566577703,260.6778492805117
198.707,198.707,748.4504630329906,483.855210654419,260.74196233387573
198.713,198.713,748.5990728808648,483.9179080581112,260.76651552480087
198.72,198.72,748.857093211888,483.92285891974853,260.7794195300355
198.727,198.727,749.1947930260865,483.96495164134564,260.82410001805584
198.734,198.734,749.5708999643776,484.03484742213874,260.89287167391467
198.74,198.74,749.9407261868157,484.1086241859393,260.9770299755922
198.747,198.747,750.2626352114269,484.16185489749296,261.06735904122024
198.754,198.754,750.5025028838671,484.1733553733934,261.15450077070744
198.761,198.761,750.6365497322694,484.2184231780647,261.2294227728509
198.767,198.767,750.6527243945534,484.32623749339456,261.2839078392465
198.774,198.774,750.7550737635569,484.49359189240033,261.3109157633344
198.781,198.781,750.9674954740849,484.7093655179118,261.31699162919216
198.788,198.788,751.2762299156788,484.9574842056378,261.3601508452936
198.794,198.794,751.6662957357904,485.219888139554,261.4428263122345
198.801,198.801,752.1249070085009,485.47852006683297,261.5661740187626
198.808,198.808,752.6443250352819,485.71641631575363,261.73045296080267
198.815,198.815,753.2244503451577,485.9186885536485,261.9353277014795
198.821,198.821,753.8739133174589,486.0738131696271,262.17983182431675
198.828,198.828,754.6073046675407,486.1747868318132,262.46172469018666
198.835,198.835,755.4376996582121,486.2198461525404,262.7763969314088
198.842,198.842,756.3663968991219,486.2266629659491,263.11576130349425
198.848,198.848,757.3740093771002,486.2751951518279,263.46758384859834
198.855,198.855,758.4182166131047,486.34972838914024,263.81588544728226
198.862,198.862,759.4415800802601,486.4307954239401,264.14277315657307
198.869,198.869,760.3871931895465,486.4976840862281,264.4310713353771
198.875,198.875,761.21505128012,486.53047031949427,264.6665254092489
198.882,198.882,761.911606127626,486.5495876258115,264.8388306743263
198.889,198.889,762.4887857818043,486.6338441036795,264.94174299321236
198.896,198.896,762.9654057160199,486.7872923967578,264.97080031617674
198.902,198.902,763.3198920279922,486.9989876921972,265.0240946382081
198.909,198.909,763.444938988957,487.2373508432947,265.1722325546904
198.916,198.916,763.7140693185688,487.4496406063361,265.41763007083335
198.923,198.923,764.4931178189886,487.5744541050543,265.7383405490507
198.929,198.929,765.7554330975382,487.5834800957631,266.0910684198693
198.936,198.936,767.325988086218,487.7381943229635,266.42784714341667
198.943,198.943,768.9529303591147,488.01357800565233,266.71121188986905
198.95,198.95,770.3988619978221,488.3602876983596,266.9196537449264
198.956,198.956,771.5022403307722,488.72091699293094,267.04553422444957
198.963,198.963,772.1942839103795,489.04239753014525,267.0909510608427
198.97,198.97,772.4848298142061,489.2841096239136,267.11737226732265
198.977,198.977,772.5325889547095,489.4230528508348,267.2026112102829
198.983,198.983,772.8264658972794,489.4555831195044,267.331105038687
198.99,198.99,773.2657450469169,489.51598787975524,267.4866387676782
198.997,198.997,773.7575034468725,489.6438006454214,267.6539750381126
199.004,199.004,774.2277051567905,489.8075952079844,267.819980993962
199.01,199.01,774.6265639034683,489.97601752403665,267.97429751911653
199.017,199.017,774.9291286332285,490.1226931373266,268.1096392478355
199.024,199.024,775.1323322102721,490.2294532099849,268.22181476456655
199.031,199.031,775.2494395988911,490.28769745372267,268.3095968443388
199.037,199.037,775.3031509264538,490.29801853619244,268.37451614231395
199.044,199.044,775.3189790417418,490.3276740161174,268.42053145397034
199.051,199.051,775.3201295216907,490.3848091561882,268.45348102525855
199.058,199.058,775.3244033991765,490.4554455359164,268.48026104794275
199.064,199.064,775.3430758585527,490.52682628680975,268.5077761235753
199.071,199.071,775.3812696000418,490.5893537345251,268.54182667064913
199.078,199.078,775.4391431970644,490.63755884527615,268.58617876759615
199.085,199.085,775.5133600929187,490.67011429761686,268.642043821957
199.091,199.091,775.5986072679448,490.6891240577269,268.7080825177108
199.098,199.098,775.6890852018661,490.69900636621395,268.7809022606728
199.105,199.105,775.7798385881235,490.70524213442565,268.85589393166697
199.112,199.112,775.8677271312226,490.71320338100895,268.92819893017344
199.118,199.118,775.9518543675774,490.7272567085845,268.9936067400102
199.125,199.125,776.0333557090463,490.750292911837,269.0492208216303
199.132,199.132,776.1146026741118,490.7836628766084,269.09380139983637
199.139,199.139,776.1981174749284,490.8273187359988,269.12777093047845
199.145,199.145,776.2856325233159,490.87999586482454,269.1529199236822
199.152,199.152,776.377592125908,490.9394404172966,269.17189293048466
199.159,199.159,776.4731007166554,491.0027368982394,269.1875800680827
199.166,199.166,776.5701192537101,491.0666753167751,269.2025888951636
199.172,199.172,776.6657550467129,491.12803138513505,269.21894007295083
199.179,199.179,776.7567054839113,491.183752247531,269.2379788207769
199.186,199.186,776.8399783838072,491.23110109466126,269.2603932258541
199.193,199.193,776.9138102922112,491.2677231787328,269.28624036929506
199.199,199.199,776.9784450690368,491.29163134515363,269.31494018337804
199.206,199.206,777.0362840372775,491.30123103417463,269.34533954280846
199.213,199.213,777.091072601055,491.30701909188105,269.3760168703234
199.22,199.22,777.146297405231,491.32861018372535,269.4058344620929
199.226,199.226,777.2034139417173,491.3655827013778,269.4345355101285
199.233,199.233,777.2606825183499,491.4163685789579,269.46309554634456
199.24,199.24,777.3133684036615,491.4778847547429,269.4936441730596
199.247,199.247,777.3555800292964,491.5454431060161,269.52903107452295
199.253,199.253,777.3828777014655,491.61314819735185,269.57224739362204
199.26,199.26,777.3939754373504,491.67465690588165,269.62579912202455
199.267,199.267,777.3972492862393,491.7240418447654,269.691051064555
199.274,199.274,777.4110018499443,491.7565685892332,269.76771109866246
199.28,199.28,777.4303101906557,491.76920685892196,269.85367655562766
199.287,199.287,777.4498420614449,491.7777413617198,269.94520005788024
199.294,199.294,777.4641749779743,491.80737573300024,270.0370611812837
199.301,199.301,777.4682520320671,491.85711298604394,270.12255964364783
199.307,199.307,777.4783903648164,491.9251726987986,270.1936441453386
199.314,199.314,777.5050634420522,492.0089206348085,270.24171135175243
199.321,199.321,777.548841355526,492.10494708386847,270.2591628610263
199.328,199.328,777.6085343663957,492.2094377728279,270.27713828837835
199.334,199.334,777.6810284889375,492.31855374118726,270.33128153147277
199.341,199.341,777.7611821781651,492.42859728928005,270.417927608128
199.348,199.348,777.8421609898171,492.5361592508462,270.5296514742362
199.355,199.355,777.9162369350463,492.63841108040316,270.6566273491438
199.361,199.361,777.9756709504568,492.7333723548052,270.78831698916525
199.368,199.368,778.0134896535296,492.82000021276787,270.91509876106653
199.375,199.375,778.024389169166,492.89813797372574,271.0294704030078
199.382,199.382,778.0430468370089,492.9683635761372,271.12659131223626
199.388,199.388,778.0907295588522,493.0317536846434,271.2041934491819
199.395,199.395,778.1640865579793,493.08964021601577,271.26206546696733
199.402,199.402,778.2578152265735,493.14342430115613,271.30129942049535
199.409,199.409,778.365480064395,493.1943994543033,271.32343862691454
199.415,199.415,778.4801468548733,493.2434991612819,271.3297262058092
199.422,199.422,778.5951970121985,493.2911318912027,271.3387098530969
199.429,199.429,778.7054521486472,493.3374067459058,271.362863596732
199.436,199.436,778.8079482883065,493.3824873256703,271.401999747039
199.442,199.442,778.9017509710638,493.4264076048271,271.4551771907938
199.449,199.449,778.9872222568322,493.468457975527,271.5200878335244
199.456,199.456,779.0654899230118,493.50705887670205,271.5926632188635
199.463,199.463,779.1380358275148,493.5404173430012,271.6671892610359
199.469,199.469,779.2059428851323,493.56720313507395,271.7370433148741
199.476,199.476,779.2691203855255,493.5867662071678,271.79579738523347
199.483,199.483,779.3261354894636,493.5992294661564,271.8382723999077
199.49,199.49,779.3745266873046,493.60561435802845,271.8612100694586
199.496,199.496,779.4111820857933,493.6077505249841,271.8634059094321
199.503,199.503,779.4327743246622,493.60789552166904,271.88138501328945
199.51,199.51,779.4363494077454,493.608341946084,271.91752964590137
199.517,199.517,779.4527157756876,493.611373217541,271.9686819374045
199.523,199.523,779.4893540722825,493.61930145269093,272.03123881552614
199.53,199.53,779.5447327399694,493.63414892686797,272.1023566846499
199.537,199.537,779.6161772853366,493.6573534871326,272.18099356067984
199.544,199.544,779.7013678842337,493.6894928889512,272.26806447213
199.55,199.55,779.7981356122524,493.72988952994893,272.3651403897515
199.557,199.557,779.9024413270512,493.77702596529036,272.4718487663467
199.564,199.564,780.0081109246769,493.8292942450668,272.58386207752443
199.571,199.571,780.1085264884313,493.8846510834238,272.6933986933164
199.577,199.577,780.1973392625974,493.94038182806054,272.79168486948237
199.584,199.584,780.2686193674974,493.99430217034944,272.8714579388169
199.591,199.591,780.3183943106634,494.0459532943984,272.92854643448493
199.598,199.598,780.3465859087445,494.0966877153065,272.96229841152797
199.604,199.604,780.3575779966047,494.149296863033,272.97452927193973
199.611,199.611,780.3596784658665,494.2073344507339,272.9816672854472
199.618,199.618,780.3640783266791,494.27380623103204,273.00726543822805
199.625,199.625,780.3828456571695,494.34981526680184,273.0514013762156
199.631,199.631,780.4259545333858,494.43407234114574,273.1134982296786
199.638,199.638,780.498429492267,494.5234962894507,273.19066804222956
199.645,199.645,780.598803572762,494.6146204355445,273.27690198437455
199.652,199.652,780.7196208274449,494.7048480112152,273.36335025895886
199.658,199.658,780.8497119637174,494.79258624951706,273.43947611371254
199.665,199.665,780.9776281401098,494.87742773552407,273.4944540224029
199.672,199.672,781.0954600355701,494.9617404793273,273.51869571891916
199.679,199.679,781.201500898147,495.05229631246925,273.53144331222006
199.685,199.685,781.3016850059267,495.16042517949217,273.5819984034599
199.692,199.692,781.4093914226124,495.30031617769015,273.6652356172052
199.699,199.699,781.5403729339366,495.4848624010876,273.77156916685516
199.706,199.706,781.7049337188894,495.7196053732673,273.88917939636394
199.712,199.712,781.9043843871693,495.99736900244403,274.0063080960914
199.719,199.719,782.1310702922739,496.29628005984637,274.11371246847256
199.726,199.726,782.367814370748,496.5821258946738,274.2063939583729
199.733,199.733,782.5892342643376,496.81408997440593,274.2836020921489
199.739,199.739,782.7667142050026,496.95198213414966,274.347545460672
199.746,199.746,782.8732860597131,496.96322159620064,274.40181181006045
199.753,199.753,782.8866346139714,497.09813497849416,274.44999840087235
199.76,199.76,782.9814574146521,497.38260883862586,274.49467997575
199.766,199.766,783.1896925194654,497.8039091758479,274.5367270179321
199.773,199.773,783.5063235919406,498.3358634961146,274.5750565287378
199.78,199.78,783.9173282664802,498.94353968192826,274.6069960638492
199.787,199.787,784.402193030264,499.5890303925438,274.62917461959177
199.793,199.793,784.9377357619552,500.2374573689352,274.638478435479
199.8,199.8,785.5023604858707,500.86214651368573,274.6443019889774
199.807,199.807,786.0786534772099,501.44810527776684,274.6664410717582
199.814,199.814,786.6536094333014,501.9935325067251,274.7049954107099
199.82,199.82,787.218184874738,502.5096021656483,274.7589413340747
199.827,199.827,787.7679334291822,503.0189257558425,274.82611360151026
199.834,199.834,788.3042836304875,503.55286033445805,274.90340221798454
199.841,199.841,788.83487715782,504.1451839795962,274.98832358522395
199.847,199.847,789.3692290083212,504.8158637814604,275.08609912343724
199.854,199.854,789.8968502805288,505.53961613738056,275.22270169181854
199.861,199.861,790.3428550758973,506.2075288690036,275.44811230779607
199.868,199.868,790.5433547118539,506.6237788980622,275.81159531439476
199.874,199.874,790.7851184725689,506.6683490503636,276.3191164963538
199.881,199.881,791.580037086807,507.28930087939153,276.9080102080997
199.888,199.888,792.8768499259875,508.4606387802625,277.46270861353946
199.895,199.895,794.4931241083771,510.0426712480224,277.86089686106067
199.901,199.901,796.203627894336,511.8340100158358,278.019114235762
199.908,199.908,797.8064007221245,513.6149806840315,278.12335432154737
199.915,199.915,799.1489910500679,515.1849121424833,278.45615078010565
199.922,199.922,800.1385158420202,516.3967430585094,278.9476896509172
199.928,199.928,800.7460400106596,517.1784541233071,279.5154075479692
199.935,199.935,801.0000211150135,517.5330769950466,280.08198329395
199.942,199.942,801.0307050752888,517.5434986311037,280.5860076329208
199.949,199.949,801.25679516499,517.8201379170251,280.9864136905648
199.955,199.955,801.5865270442488,518.2499408476895,281.26267836809245
199.962,199.962,801.9393720717571,518.7254349443282,281.4125415146365
199.969,199.969,802.2547246591223,519.1592816949521,281.44843189679773
199.976,199.976,802.4952850400597,519.4923109049047,281.50361247535346
199.982,199.982,802.645962268597,519.6954293021803,281.62102913125165
199.989,199.989,802.7098415359436,519.766572986944,281.77054322552493
199.996,199.996,802.7170088845048,519.8088093141587,281.92502174927586
200.003,200.003,802.7727254214599,519.9329319831037,282.06362164482755
200.009,200.009,802.8531577667237,520.1022717994806,282.17334531042724
200.016,200.016,802.9371986874407,520.281843001488,282.2487255609247
200.023,200.023,803.0088011080508,520.443490042377,282.29016164236924
200.03,200.03,803.0577692460073,520.5686939200074,282.3016210749745
200.036,200.036,803.079415765771,520.6492190304101,282.3149306640618
200.043,200.043,803.0852251985856,520.6861443660902,282.3484144541961
200.05,200.05,803.1150047302157,520.6875109215373,282.3990435914878
200.057,200.057,803.1624388488257,520.7100205360666,282.46508433984496
200.063,200.063,803.2195457147229,520.7441522839883,282.5447746149966
200.07,200.07,803.2778746123494,520.77904566502,282.6347819071389
200.077,200.077,803.329135331266,520.8065329803412,282.729283585464
200.084,200.084,803.3658545690872,520.8218447264096,282.8201070079332
200.09,200.09,803.3819785861886,520.8234739654889,282.89793465142066
200.097,200.097,803.3902936227748,520.833865664534,282.95389973255635
200.104,200.104,803.4225392207097,520.8518255674038,282.98048619019266
200.111,200.111,803.4725906862577,520.8720641674272,282.98935775498387
200.117,200.117,803.530629738743,520.8906123612761,283.0379485234134
200.124,200.124,803.5858660297952,520.9054455324664,283.1276011298315
200.131,200.131,803.6279863043153,520.9164151707506,283.2557310507238
200.138,200.138,803.6482370405097,520.9254512100424,283.41552538097386
200.144,200.144,803.6554350628727,520.9364706373793,283.5964213917369
200.151,200.151,803.6910220368648,520.9543020469358,283.78547965733134
200.158,200.158,803.7510410611221,520.983425969012,283.9693773291821
200.165,200.165,803.8268386351583,521.0279678552255,284.1358494477454
200.171,200.171,803.9052789543879,521.0924560016689,284.2739397995958
200.178,200.178,803.9709589199724,521.1814576825655,284.3739076138281
200.185,200.185,804.0106163259187,521.2975911210456,284.4276479815177
200.192,200.192,804.0168269942271,521.4390418862295,284.4296373428103
200.198,200.198,804.0441693903575,521.5978795895861,284.481192673499
200.205,200.205,804.0979404872376,521.7599315972517,284.5834024680398
200.212,200.212,804.1651204141485,521.906312181487,284.72823710566064
200.219,200.219,804.2293479866486,522.0163099856459,284.902668582952
200.225,200.225,804.2741555986602,522.0712321394742,285.0896125726976
200.232,200.232,804.2861412752025,522.0841141782994,285.27016005530044
200.239,200.239,804.3154010356054,522.1690528907324,285.4271423363265
200.246,200.246,804.3892889836345,522.3218795138558,285.54889671004474
200.252,200.252,804.5067689945499,522.5322501803842,285.63168515944903
200.259,200.259,804.6630529022196,522.7867225725469,285.6800255834415
200.266,200.266,804.8509638222251,523.071545849356,285.705158813498
200.273,200.273,805.0630481464237,523.3749572506955,285.7223952777335
200.279,200.279,805.2937844082909,523.6891129104744,285.7481047157736
200.286,200.286,805.541125270833,524.0111629555886,285.7968140232773
200.293,200.293,805.8068201335751,524.3428689850517,285.8787322077338
200.3,200.3,806.0955343245776,524.6889558678403,285.9981302616584
200.306,200.306,806.4131322887941,525.054908839261,286.1530321885783
200.313,200.313,806.7646680189757,525.4449231054201,286.3363917085036
200.32,200.32,807.1527898349059,525.8606468121772,286.5384043085337
200.327,200.327,807.5772312224491,526.3012530331132,286.7490402069233
200.333,200.333,808.035536206271,526.7649854370325,286.95968569174846
200.34,200.34,808.5240251465668,527.2516557052544,287.1633881393181
200.347,200.347,809.0379487205255,527.7653768190222,287.3542986552945
200.354,200.354,809.5717512010172,528.317271856866,287.5274434600827
200.36,200.36,810.1209732082065,528.9274504381074,287.6793738811478
200.367,200.367,810.6849238572072,529.6243369267605,287.8090839171262
200.374,200.374,811.2681097484626,530.4398138523201,287.9177928515381
200.381,200.381,811.8750097335405,531.3950133633606,288.0022987786794
200.387,200.387,812.4859758945676,532.4598745218494,288.03909583392965
200.394,200.394,813.0159844286924,533.4907813676009,288.09976697017123
200.401,200.401,813.2958078599956,534.2208361281505,288.30943838752313
200.408,200.408,813.4662047604912,534.3659402051848,288.6832504347367
200.414,200.414,814.2044856873794,534.9610070024387,289.18073491089274
200.421,200.421,815.464688111423,536.2623153875954,289.7176892893072
200.428,200.428,817.057139476007,538.0853467773508,290.1985346543043
200.435,200.435,818.7351493386319,540.1665752039852,290.54823168004765
200.441,200.441,820.273121968074,542.2275382640472,290.72985715065033
200.448,200.448,821.5062457604138,544.0257873045897,290.74710476626666
200.455,200.455,822.3428892175034,545.3917075964098,290.8575595968909
200.462,200.462,822.7624509621062,546.2465199539973,291.03859268387356
200.468,200.468,822.8029167970263,546.5995030526113,291.22633366135534
200.475,200.475,823.0638041181487,546.6702461679702,291.3626775756728
200.482,200.482,823.5279669495035,547.0450883443518,291.4045288593203
200.489,200.489,824.0937391268599,547.5902282585295,291.4804557040254
200.495,200.495,824.6699426231879,548.1800530991478,291.67679611091484
200.502,200.502,825.1868191509435,548.71258917163,291.97754653719164
200.509,200.509,825.6017132659271,549.1182071931353,292.35235373267966
200.516,200.516,825.898128326835,549.3615687761196,292.76265985452994
200.522,200.522,826.0796665255779,549.437451904725,293.16852390822953
200.529,200.529,826.1629974278887,549.510544928624,293.53439205328647
200.536,200.536,826.1725800022178,549.6963113116188,293.8327010440993
200.543,200.543,826.2096557112189,549.9482384415803,294.045152200278
200.549,200.549,826.2699076731664,550.2196860625861,294.1619504125763
200.556,200.556,826.3377410154079,550.4730183093826,294.1800788982967
200.563,200.563,826.4055354488344,550.6846642998189,294.2578895896995
200.57,200.57,826.4712254303835,550.8456049409247,294.4229545738315
200.576,200.576,826.535548926205,550.95855250211,294.660244349942
200.583,200.583,826.6000825514421,551.0338341596555,294.9489594629553
200.59,200.59,826.6668449314814,551.0856420709448,295.26432076902097
200.597,200.597,826.7390505391221,551.1293351012226,295.58021256009954
200.603,200.603,826.8216018717276,551.1798304074946,295.87208130340997
200.61,200.61,826.9212959938866,551.2512189187952,296.11940466901467
200.617,200.617,827.0479240351644,551.3571891751582,296.3073471492383
200.624,200.624,827.2150140928873,551.5103494606489,296.42781399667916
200.63,200.63,827.4366866144585,551.7188828872264,296.48016321895125
200.637,200.637,827.7200830007883,551.981296504094,296.48894658219854
200.644,200.644,828.0574281798973,552.2816932870533,296.544863699862
200.651,200.651,828.4223737040242,552.5881813802077,296.6282906801909
200.657,200.657,828.7720994567705,552.8556486226173,296.7160898545464
200.664,200.664,829.0534693111383,553.0322378487032,296.7844105969574
200.671,200.671,829.21115765498,553.0679972919047,296.8119590195607
200.678,200.678,829.2256653835279,553.2121942114752,296.84064518583966
200.684,200.684,829.4453885525356,553.5576657268871,296.93257011210244
200.691,200.691,829.8815895181876,554.1047474575483,297.08504739691995
200.698,200.698,830.5222525865589,554.8342720979017,297.28610320201363
200.705,200.705,831.335816154128,555.7131862668164,297.5159319637416
200.711,200.711,832.2781756656378,556.7027212602201,297.74899376372116
200.718,200.718,833.3005255161951,557.7666626311574,297.9571521262239
200.725,200.725,834.3546077231159,558.873504139573,298.1110796388842
200.732,200.732,835.3857691096487,559.9805906959209,298.1738384074768
200.738,200.738,836.3075997552235,561.0002675233249,298.2530154898332
200.745,200.745,836.9841769660493,561.786075766998,298.52187433588375
200.752,200.752,837.2650699721232,562.1797309655587,298.9872330417656
200.759,200.759,837.4647688612057,562.2723136753347,299.592477758431
200.765,200.765,838.1109415235079,562.8471157948092,300.23281007500395
200.772,200.772,839.0680666996307,563.8205007764387,300.79241967274044
200.779,200.779,840.1591635779647,565.0602294186166,301.17810158707294
200.786,200.786,841.2201766614356,566.4086222054706,301.33790419819036
200.792,200.792,842.1298575447704,567.7020720510734,301.41049289729733
200.799,200.799,842.8192025172511,568.7919425794594,301.6826196510104
200.806,200.806,843.2680290542273,569.5669121866767,302.09489248766585
200.813,200.813,843.4934968155837,569.971314058599,302.5767852550227
200.819,200.819,843.5350530021433,570.0110283373066,303.0593898448229
200.826,200.826,843.6295894880745,570.277572711343,303.4836123826547
200.833,200.833,843.8135559532276,570.7578706603239,303.80558458061853
200.84,200.84,844.0463602476486,571.3463614352522,304.0004682694422
200.846,200.846,844.2959554558855,571.9430728452885,304.0637205251871
200.853,200.853,844.5402795120704,572.4669818190495,304.1185952864031
200.86,200.86,844.7671826006854,572.8631709905201,304.26517650033134
200.867,200.867,844.9724069713255,573.1046862845582,304.4705824559563
200.873,200.873,845.1565569599197,573.1905811573871,304.70183306629946
200.88,200.88,845.3226810470377,573.2399440685999,304.93101183858244
200.887,200.887,845.4750864620054,573.3895318727509,305.1383056301653
200.894,200.894,845.6183862663446,573.5973063455976,305.3123066445805
200.9,200.9,845.7558335131922,573.821783514755,305.4479555912516
200.907,200.907,845.887600346435,574.0283182073072,305.5436880250681
200.914,200.914,846.0102938375682,574.1932078761565,305.5993529908758
200.921,200.921,846.1179626290706,574.3052694767748,305.6154965034485
200.927,200.927,846.2039172601259,574.3651281365622,305.63732253722003
200.934,200.934,846.2627464373123,574.3826962396483,305.6941281300492
200.941,200.941,846.2919587434835,574.3918704454361,305.78180589338103
200.948,200.948,846.2926515922619,574.4103768650492,305.8961870583121
200.954,200.954,846.3161759526273,574.4220259466484,306.0337703211883
200.961,200.961,846.3575970589445,574.4300143395552,306.1911901891991
200.968,200.968,846.4103280652663,574.4656366480265,306.3636920487955
200.975,200.975,846.4692165155881,574.5314578072121,306.5437512926578
200.981,200.981,846.5312597826904,574.6248390624536,306.72070397530325
200.988,200.988,846.5951731975146,574.7395380734686,306.88153896055195
200.995,200.995,846.6608869147273,574.8684125780707,307.01285834836784
201.002,201.002,846.7296224719956,575.0056450281472,307.10382147319893
201.008,201.008,846.8035448103959,575.1472382842296,307.14908047132695
201.015,201.015,846.8841197016741,575.2899782986889,307.1504845972876
201.022,201.022,846.970109188847,575.4298334485109,307.1839023613656
201.029,201.029,847.0564967678741,575.5605783121497,307.2374456374796
201.035,201.035,847.1344887105112,575.6729871382079,307.2933642831279
201.042,201.042,847.1923250549349,575.7548716728147,307.3340857076632
201.049,201.049,847.2165021499641,575.7920276232358,307.3454436546501
201.056,201.056,847.2400878854544,575.8143022150999,307.3716923590142
201.062,201.062,847.3248788174874,575.9094118190164,307.4366136212992
201.069,201.069,847.4820473193322,576.0875947636933,307.5343433684872
201.076,201.076,847.7188320600164,576.3542887973076,307.65373920039815
201.083,201.083,848.037303697763,576.7091826824843,307.7810438254502
201.089,201.089,848.4344594824646,577.1465534554535,307.9030035119112
201.096,201.096,848.9038808747755,577.6571784234018,308.0098798289099
201.103,201.103,849.43754154913,578.2312992848227,308.09776531701647
201.11,201.11,850.0267266028558,578.8614192099906,308.169459331358
201.116,201.116,850.6630672239578,579.5439020009401,308.23315526164197
201.123,201.123,851.3410411659215,580.2789574289096,308.2984402570922
201.13,201.13,852.057668335281,581.0659109200722,308.36818277331037
201.137,201.137,852.7974611148351,581.885643223271,308.4254156185137
201.143,201.143,853.5016869532853,582.6708290599627,308.4263741473773
201.15,201.15,854.0515086960116,583.2935785003447,308.54705855029266
201.157,201.157,854.3016267026411,583.6047366571574,308.83050978474876
201.164,201.164,854.4472560892074,583.7047707220638,309.27135575004974
201.17,201.17,854.9799089682812,584.2246986034436,309.8114852667437
201.177,201.177,855.8008012177311,585.0918377655338,310.35835477465486
201.184,201.184,856.7821913630057,586.183177088954,310.8128608820181
201.191,201.191,857.8119753680021,587.3535639951644,311.0971001164343
201.197,201.197,858.7994479360484,588.4595923918231,311.1737772319655
201.204,201.204,859.6687832785926,589.3817796407664,311.29639994875413
201.211,201.211,860.3621102676894,590.0422043132746,311.5723704650068
201.218,201.218,860.8469649283737,590.4125181494323,311.93234747777154
201.224,201.224,861.1180600171034,590.5105256416359,312.29977647519434
201.231,201.231,861.1933306965228,590.6324740511369,312.6062551209692
201.238,201.238,861.279316548726,590.9025935936909,312.8033801624568
201.245,201.245,861.483403875118,591.244917795476,312.8688546290363
201.251,201.251,861.7612975773864,591.5918525490437,312.9315201850186
201.258,201.258,862.0724300682939,591.8920339019488,313.09861596822645
201.265,201.265,862.382801058553,592.1136259677231,313.33466865054476
201.272,201.272,862.6666419817107,592.2443093867824,313.6007011225688
201.278,201.278,862.9063027471135,592.2887430339877,313.8604068004405
201.285,201.285,863.0911073189212,592.3139683884053,314.0843094705396
201.292,201.292,863.2170331725537,592.3876276473021,314.2524264816636
201.299,201.299,863.2857181543419,592.4910703934248,314.3548569348391
201.305,201.305,863.3023427225042,592.6118148101357,314.39029286647605
201.312,201.312,863.3295282629144,592.7426791850583,314.4164971748903
201.319,201.319,863.3892715074076,592.8789962323776,314.49371316847214
201.326,201.326,863.4688804099635,593.0164046302285,314.60737220655994
201.332,201.332,863.5555786138488,593.1496052729395,314.7408269518488
201.339,201.339,863.6370725470648,593.2716120138399,314.87782234831263
201.346,201.346,863.7021787624182,593.3735108024289,315.00519544163126
201.353,201.353,863.7414994312779,593.4448899544524,315.11507408238435
201.359,201.359,863.7475448521659,593.4747755524787,315.20584078770867
201.366,201.366,863.7808327662547,593.4966911111153,315.28164693629924
201.373,201.373,863.8583063123702,593.5785694077703,315.3508933094164
201.38,201.38,863.9830009329118,593.7249132285637,315.42419910480504
201.386,201.386,864.1551579114982,593.9355329800957,315.5121804884066
201.393,201.393,864.3717221324324,594.2053679592868,315.6233608231297
201.4,201.4,864.626769109502,594.5253208447839,315.76271507446495
201.407,201.407,864.9128808097653,594.8841467850707,315.9313818459561
201.413,201.413,865.2229839939192,595.2709972946108,316.1276150086509
201.42,201.42,865.5518415736658,595.6777814007455,316.3482292292908
201.427,201.427,865.8967008618949,596.1008295473539,316.5894956295904
201.434,201.434,866.2572521457631,596.5421096103539,316.84715048380554
201.44,201.44,866.6353466327578,597.0102372888527,317.1161574322002
201.447,201.447,867.0343981465726,597.5202346026128,317.39108157137167
201.454,201.454,867.457651446853,598.0890291294544,317.6670322734779
201.461,201.461,867.9017249588212,598.7218128976854,317.93813962922377
201.467,201.467,868.3388116866616,599.3858156676088,318.1897098813669
201.474,201.474,868.6928089311658,599.9831992632941,318.3909180681377
201.481,201.481,868.836150766826,600.3564371308354,318.5029219896904
201.488,201.488,869.0410621626964,600.3673233640347,318.5048964495189
201.494,201.494,869.6686730649952,600.8490141847848,318.6149508361134
201.501,201.501,870.6794661618343,601.7770978523366,318.79706482989644
201.508,201.508,871.9372283300985,603.0334691739465,318.99804867212794
201.515,201.515,873.2722852852106,604.4497091982735,319.1643039547793
201.521,201.521,874.5310726027019,605.8464686419208,319.25708243183476
201.528,201.528,875.5926318114167,607.0628499783022,319.2619778980042
201.535,201.535,876.3736016861673,607.9790555139721,319.33376452339917
201.542,201.542,876.8345997344695,608.5315372795498,319.4507531086626
201.548,201.548,876.9819637993766,608.7168947223136,319.5701451133471
201.555,201.555,877.1041128620641,608.8508137943401,319.64836193454056
201.562,201.562,877.4283585173846,609.2224140857853,319.6507500002215
201.569,201.569,877.8789758186504,609.7355046473576,319.7437887433188
201.575,201.575,878.383315281815,610.295634922877,319.9354903193668
201.582,201.582,878.879049159773,610.8221513607227,320.21545337176633
201.589,201.589,879.3186692416745,611.2557943683605,320.564574786846
201.596,201.596,879.6720764529983,611.5622897420576,320.96031040109875
201.602,201.602,879.9269933296921,611.7323934441172,321.3807037036035
201.609,201.609,880.086795685273,611.7785295238389,321.80630220423024
201.616,201.616,880.1662046515274,611.8285128635258,322.2200836128486
201.623,201.623,880.1861087238382,611.9390568877668,322.6063541464333
201.629,201.629,880.2034618403197,612.0742727488881,322.94987876869317
201.636,201.636,880.2381311478288,612.2036152562574,323.23614144120546
201.643,201.643,880.2746297824795,612.30526240603,323.4527628249767
201.65,201.65,880.3026665502911,612.3672709648963,323.59141694779095
201.656,201.656,880.3169255223917,612.3869653254976,323.64944058940347
201.663,201.663,880.3173381057984,612.4050658955014,323.66830337263656
201.67,201.67,880.3298939515697,612.4519164406776,323.7540417953176
201.677,201.677,880.3506147430716,612.5152033029125,323.89181252248545
201.683,201.683,880.3751099174656,612.5802187584273,324.0654847344128
201.69,201.69,880.398640906971,612.6341198863095,324.26136210185064
201.697,201.697,880.4187133098973,612.6715565373268,324.46853771620107
201.704,201.704,880.4374706103036,612.6956339883948,324.676328726094
201.71,201.71,880.4591873736265,612.7139125715281,324.8721124949556
201.717,201.717,880.4864259494012,612.7337733376476,325.04121757478936
201.724,201.724,880.5188699630644,612.7595898261654,325.1689218520291
201.731,201.731,880.5536534626489,612.7918368757115,325.2439853873716
201.737,201.737,880.5863291429405,612.8279088936948,325.26224458683106
201.744,201.744,880.6127070906105,612.8639802566024,325.29599911887397
201.751,201.751,880.6303335736602,612.8966822744737,325.36880652037456
201.758,201.758,880.6384273444806,612.923767776848,325.46266469776367
201.764,201.764,880.6401389564955,612.9438442042732,325.55879619727216
201.771,201.771,880.6527146216177,612.9556915242258,325.64155356684245
201.778,201.778,880.6787656407375,612.957713161805,325.7007353476273
201.785,201.785,880.7222195042567,612.9674137424907,325.73182597270454
201.791,201.791,880.7868854568152,612.9902208247331,325.73460041372664
201.798,201.798,880.8743577782849,613.025954462202,325.758042288832
201.805,201.805,880.9825241993356,613.0722956972243,325.8048151020818
201.812,201.812,881.1056459469698,613.125043597012,325.87192456692844
201.818,201.818,881.2358650645821,613.1790313642315,325.95618822102705
201.825,201.825,881.3652230195778,613.2292410180262,326.05382353325183
201.832,201.832,881.4872706356023,613.2717051322533,326.1601735891854
201.839,201.839,881.5979119008604,613.3040227828843,326.269842484199
201.845,201.845,881.6956246468937,613.3255122101041,326.3772146947891
201.852,201.852,881.7812236717743,613.3370952282374,326.4771205904907
201.859,201.859,881.857230001295,613.3409845890664,326.56539842735316
201.866,201.866,881.9270070426036,613.3417672385142,326.63920325239394
201.872,201.872,881.9939564135427,613.3439830088864,326.6970013836765
201.879,201.879,882.0609775238764,613.3447642435137,326.738299054563
201.886,201.886,882.1301406477988,613.3474353107573,326.76326419918007
201.893,201.893,882.2024654318357,613.3544546476239,326.7724085219011
201.899,201.899,882.2778573637314,613.3656044926742,326.7783953737611
201.906,201.906,882.3552695064865,613.3798091537861,326.7986691583044
201.913,201.913,882.4330335486571,613.395511435643,326.83219759521205
201.92,201.92,882.5092624249259,613.4110290972712,326.8777471026956
201.926,201.926,882.582221244949,613.4247696170748,326.9338922271911
201.933,201.933,882.6505695986978,613.4352932390948,326.9989780517223
201.94,201.94,882.7134733902435,613.4413905992178,327.07097941865294
201.947,201.947,882.7706789413536,613.4423471915574,327.1472853202293
201.953,201.953,882.822673114237,613.4463146182751,327.2244901102202
201.96,201.96,882.8709529478248,613.4537196138095,327.2982623887022
201.967,201.967,882.9179924886089,613.4619544396508,327.36334465649884
201.974,201.974,882.9664524081666,613.4679694089841,327.41386493606734
201.98,201.98,883.0182525275684,613.469050812568,327.4442130615154
201.987,201.987,883.0747631507992,613.4746681991189,327.45042306513943
201.994,201.994,883.138164291599,613.4871358589332,327.46926657615495
202.001,202.001,883.2120500580312,613.5045341915385,327.51024629909756
202.007,202.007,883.3000593794355,613.5238263513316,327.5668531225096
202.014,202.014,883.4044484539041,613.5431554535196,327.63028546785426
202.021,202.021,883.5251606074963,613.5629506866591,327.6914940124744
202.028,202.028,883.6575324753304,613.5845325091365,327.74297888521835
202.034,202.034,883.7906348140715,613.6082396672448,327.77938350424773
202.041,202.041,883.9094905181815,613.6328272315636,327.7971216934699
202.048,202.048,883.9996043380031,613.6557834572632,327.8004206451583
202.055,202.055,884.0505681955545,613.6740261610298,327.8262601173861
202.061,202.061,884.0576657276717,613.6847090019155,327.87526590538454
202.068,202.068,884.0934576044106,613.6857881118768,327.94679280117913
202.075,202.075,884.1663648244064,613.6952007383504,328.03839897534846
202.082,202.082,884.2670349927889,613.7145300146036,328.1455801550322
202.088,202.088,884.3839092396121,613.7416086310229,328.26196930796374
202.095,202.095,884.5048422295132,613.772886852001,328.3799387948254
202.102,202.102,884.6188146474112,613.8039933020925,328.49145377245446
202.109,202.109,884.7172895538608,613.8306086692775,328.5889812888384
202.115,202.115,884.794928984734,613.8494214599108,328.6662472725363
202.122,202.122,884.8496188315795,613.8587169624532,328.71877777905775
202.129,202.129,884.8818678481182,613.8590493528658,328.74424300634576
202.136,202.136,884.8939611038605,613.8678661816845,328.7459088281778
202.142,202.142,884.8985508017687,613.8831797900999,328.7726080947981
202.149,202.149,884.9154534230848,613.9025135507161,328.82036516453553
202.156,202.156,884.9397187240448,613.923209843141,328.88381081885996
202.163,202.163,884.9662730217079,613.942727004452,328.95683978847563
202.169,202.169,884.9904085554659,613.9589327187354,329.0332925375933
202.176,202.176,885.0082387608196,613.970353882965,329.10750681638854
202.183,202.183,885.0170501927155,613.9763291919963,329.174678122554
202.19,202.19,885.0186215556972,613.9770424674729,329.2310483766082
202.196,202.196,885.0305679883849,613.9806581457622,329.273994132042
202.203,202.203,885.0516296441829,613.9871676015862,329.3020744472916
202.21,202.21,885.0796291527763,613.994997827998,329.3150206934776
202.217,202.217,885.1120258645705,614.0027954639831,329.3164375225293
202.223,202.223,885.1465067334701,614.0096457889767,329.33069001135743
202.23,202.23,885.1813529500148,614.0151142585894,329.35587723589504
202.237,202.237,885.2154945871048,614.0191898952147,329.3901047218245
202.244,202.244,885.2484389449354,614.022221148154,329.4318009399889
202.25,202.25,885.2802802944808,614.0248393719687,329.47999219328335
202.257,202.257,885.3117456441213,614.0278490492727,329.53452685811874
202.264,202.264,885.3440902308687,614.032125110192,329.59609507209467
202.271,202.271,885.3788100597674,614.0385299624256,329.6658434564524
202.277,202.277,885.4173149271239,614.0478106987102,329.7445850313958
202.284,202.284,885.4606325143582,614.0604816862639,329.8318931800894
202.291,202.291,885.5090924803341,614.0767462828605,329.92546827733156
202.298,202.298,885.5620297901733,614.0964689185964,330.02106871900554
202.304,202.304,885.6174383056632,614.1192889845366,330.1131122882137
202.311,202.311,885.6717353494514,614.1448775389247,330.1957596549163
202.318,202.318,885.7202372240777,614.1727209535431,330.26401094836007
202.325,202.325,885.7580903546024,614.2013822407291,330.3143235977981
202.331,202.331,885.781454056743,614.2285258920782,330.34468648685146
202.338,202.338,885.7890451247604,614.2518482245106,330.3545964646868
202.345,202.345,885.7955259706371,614.2695407646045,330.36399709976973
202.352,202.352,885.81266301002,614.280019975162,330.3899427210399
202.358,202.358,885.8366834033019,614.2817210338893,330.4285651732252
202.365,202.365,885.8639928663956,614.2900524547363,330.47574945539805
202.372,202.372,885.8911768287121,614.3087092498749,330.5278638948242
202.379,202.379,885.9150691143358,614.3365664320729,330.5820888595622
202.385,202.385,885.9331535769197,614.3711722699079,330.6363633697372
202.392,202.392,885.9439520852219,614.4092165249845,330.6891237889849
202.399,202.399,885.947222650705,614.4472344278503,330.7390779899768
202.406,202.406,885.9503362514905,614.4824270605963,330.78521104952796
202.412,202.412,885.9573967612876,614.5131410190404,330.8270453665395
202.419,202.419,885.9653420671907,614.5387364748968,330.86495182398625
202.426,202.426,885.9714452523066,614.5592133787403,330.9001788814969
202.433,202.433,885.9738618013138,614.5750283342179,330.934436784605
202.439,202.439,885.9761546265876,614.5870660091942,330.9691892653133
202.446,202.446,885.9836035859462,614.5965435203765,331.0049520541856
202.453,202.453,885.9961453038724,614.604782904097,331.04090114844
202.46,202.46,886.0131287702451,614.6129201101407,331.075025331043
202.466,202.466,886.0333474855704,614.6216693466006,331.1048189706548
202.473,202.473,886.055294488161,614.6312271634046,331.12819292896404
202.48,202.48,886.0774489406944,614.6413091366425,331.1441797197086
202.487,202.487,886.0983517984266,614.6512775104808,331.15316366726285
202.493,202.493,886.1165186561302,614.6603275091047,331.1565970845107
202.5,202.5,886.1304353384224,614.6676880327076,331.1568164674001
202.507,202.507,886.1387361946531,614.6727796319778,331.15901249559346
202.514,202.514,886.1404451361238,614.675290881086,331.1621855462283
202.52,202.52,886.1457635662687,614.6754035707272,331.16614419758963
202.527,202.527,886.1579883474884,614.677955126268,331.1713586851744
202.534,202.534,886.1765025705265,614.6825651430587,331.1786647293702
202.541,202.541,886.2002437280538,614.6886452993532,331.18894628927075
202.547,202.547,886.2277401813737,614.6953617176063,331.20288730305936
202.554,202.554,886.2572441583721,614.7016763830554,331.22083922236425
202.561,202.561,886.2870232864567,614.7065222664808,331.24281696603384
202.568,202.568,886.3156666597506,614.7090190829873,331.2685898593787
202.574,202.574,886.342213388357,614.7094060712726,331.29780225174653
202.581,202.581,886.3661649764261,614.7127156908618,331.3300810143874
202.588,202.588,886.3875706694881,614.7182974939153,331.36506906178096
202.595,202.595,886.4071409023104,614.724714142864,331.4022910744274
202.601,202.601,886.4262258170467,614.729945586438,331.44087700152875
202.608,202.608,886.4466682950953,614.7318877966254,331.4793248464086
202.615,202.615,886.4705638521464,614.7348770717576,331.51546062150175
202.622,202.622,886.4995162012841,614.7436798595995,331.5466504514636
202.628,202.628,886.53353898587,614.7585464085776,331.5701963353865
202.635,202.635,886.5712298850514,614.7792037757387,331.5836233210478
202.642,202.642,886.6108723199762,614.8042702621964,331.5846356776928
202.649,202.649,886.6503864324703,614.8308438460435,331.5982580735611
202.655,202.655,886.6872684721498,614.8553690643349,331.628439245915
202.662,202.662,886.7195270260302,614.8747710900199,331.6763537961855
202.669,202.669,886.7459529038248,614.8869107873102,331.74196520216026
202.676,202.676,886.7659429798891,614.8907937819037,331.82354481831095
202.682,202.682,886.7798198586119,614.8949598785979,331.9173877493753
202.689,202.689,886.788909930625,614.9059631907146,332.0180832937037
202.696,202.696,886.7951056560036,614.9218502921481,332.1192460457386
202.703,202.703,886.8003441875055,614.940271611462,332.2144063833324
202.709,202.709,886.8061056003733,614.9589051459924,332.29791014689056
202.716,202.716,886.8130007132775,614.9758371265345,332.36567934523555
202.723,202.723,886.8206626348449,614.9899230929482,332.41563247216845
202.73,202.73,886.8280207642467,615.0010109748071,332.4476501260629
202.736,202.736,886.8338184515047,615.0097204881108,332.463170180744
202.743,202.743,886.837085117893,615.0168750509725,332.46464710190827
202.75,202.75,886.8372761531411,615.0230929174752,332.4742458409395
202.757,202.757,886.8404389049621,615.0287472992326,332.4918805109326
202.763,202.763,886.8471048228936,615.0340584094396,332.5148102496262
202.77,202.77,886.8572346130065,615.0391215140693,332.5408378009984
202.777,202.777,886.8704766381601,615.0439029093709,332.5683885828663
202.784,202.784,886.886140905031,615.0482588044533,332.59645706621063
202.79,202.79,886.9032292257073,615.0519572721905,332.6245021964979
202.797,202.797,886.9204441022163,615.0546899026957,332.6523628517034
202.804,202.804,886.9362412630193,615.056097956972,332.6802123652849
202.811,202.811,886.9490185596044,615.0563598881513,332.7085170776928
202.817,202.817,886.9574332933905,615.0585249386788,332.73794252568587
202.824,202.824,886.9607678884504,615.0626077250047,332.7691726782882
202.831,202.831,886.962330144045,615.0683448629793,332.80266067838807
202.838,202.838,886.9677222381257,615.0752332018074,332.8383875890135
202.844,202.844,886.9753567491575,615.0826333478678,332.8757251657812
202.851,202.851,886.9835730665264,615.0898385745645,332.91345780680405
202.858,202.858,886.9908878547601,615.0960878937866,332.9499476650027
202.865,202.865,886.9960614421655,615.1006140899781,332.9833778768692
202.871,202.871,886.9981386844447,615.1027686332684,333.01200253572205
202.878,202.878,886.9997409395673,615.1033874527889,333.0343611331068
202.885,202.885,887.0050914464427,615.1068351672933,333.04945840344726
202.892,202.892,887.0136169933239,615.1127519604964,333.0569078820207
202.898,202.898,887.0241350393435,615.1204158932044,333.0569965887992
202.905,202.905,887.0350212993081,615.1289376101735,333.0633502905031
202.912,202.912,887.0443792064992,615.1374770051622,333.0747136685601
202.919,202.919,887.0502459298702,615.1453939911898,333.08927409268364
202.925,202.925,887.0508692314004,615.152298985063,333.1049462429598
202.932,202.932,887.0568051112037,615.1579944171491,333.1194615830084
202.939,202.939,887.0701038265044,615.162358020707,333.1305280907796
202.946,202.946,887.091131888842,615.1652474336855,333.136123746512
202.952,202.952,887.1199910255463,615.1664607721818,333.1373773056171
202.959,202.959,887.156299669355,615.1672894078805,333.145910218145
202.966,202.966,887.1985961057419,615.1709281245347,333.1610967562361
202.973,202.973,887.2445666122045,615.1783937437857,333.18122039777205
202.979,202.979,887.2916706869601,615.1901549027342,333.2033422534707
202.986,202.986,887.3372630314389,615.2057119396793,333.22342149704343
202.993,202.993,887.3790878681156,615.2239528676148,333.2371627861626
203.0,203.0,887.4155338369463,615.2433238925925,333.24122027879264
203.006,203.006,887.4449859658428,615.2616856507932,333.24849102763017
203.013,203.013,887.46569486095,615.2764910756902,333.2668857658146
203.02,203.02,887.4764007433829,615.285230031876,333.29457742650743
203.027,203.027,887.4766887456491,615.2858175772982,333.32866504065754
203.033,203.033,887.4864539426522,615.2947063700135,333.36588748567175
203.04,203.04,887.5051806672669,615.3132986332253,333.4032142564712
203.047,203.047,887.5310453758233,615.3404887354985,333.4381909649039
203.054,203.054,887.5616584229141,615.373875322154,333.4690600038388
203.06,203.06,887.5944300980747,615.410147378259,333.4947272021111
203.067,203.067,887.6270184046627,615.4457329997166,333.5146690373815
203.074,203.074,887.6577720903455,615.4775198236487,333.52884616301077
203.081,203.081,887.6860898540847,615.5034353572944,333.53763768113384
203.087,203.087,887.7124961541618,615.5227126019824,333.5417798063385
203.094,203.094,887.7382917521562,615.5358069416343,333.5422788722722
203.101,203.101,887.7650077089165,615.5440795538701,333.5442750933331
203.108,203.108,887.7940358332713,615.5493951284969,333.5476293549715
203.114,203.114,887.82649716674,615.5537468354383,333.5513629624649
203.121,203.121,887.8631763628096,615.5589540027901,333.55476302639335
203.128,203.128,887.9044769826427,615.5664100257773,333.55738709790745
203.135,203.135,887.9504296759565,615.5768850613143,333.5589434245255
203.141,203.141,888.000671613741,615.5904568100582,333.5591118436049
203.148,203.148,888.0544057958592,615.606611017927,333.56080993086385
203.155,203.155,888.1104857239097,615.6244452715551,333.5650001009997
203.162,203.162,888.1675936006814,615.6428693528347,333.5722869881221
203.168,203.168,888.2243552259926,615.6607783260174,333.5830099375592
203.175,203.175,888.2794082363473,615.6772415761051,333.5970272896954
203.182,203.182,888.3315310030365,615.6916733404332,333.6135926764363
203.189,203.189,888.3798033260861,615.703870356403,333.6313495293847
203.195,203.195,888.4236989051595,615.713892028382,333.6484611057559
203.202,203.202,888.4630823823525,615.7219015123092,333.6628812407003
203.209,203.209,888.498156416185,615.7280881321652,333.6727277693102
203.216,203.216,888.5294162755941,615.7326710413153,333.6766579652021
203.222,203.222,888.5576054885001,615.7358921768337,333.67919318218884
203.229,203.229,888.5835970098192,615.737951976796,333.68789781046235
203.236,203.236,888.6081642974767,615.7389548010129,333.701798561476
203.243,203.243,888.6317312261325,615.7389719807633,333.71956860956556
203.249,203.249,888.6542569443859,615.7399320307861,333.73987525160715
203.256,203.256,888.6753288682472,615.7415844711082,333.7616212353538
203.263,203.263,888.6943916827663,615.7434280775391,333.78400467744893
203.27,203.27,888.7109677089258,615.7447459533363,333.80640403985325
203.276,203.276,888.7247541604044,615.7448171631145,333.8281770856639
203.283,203.283,888.7357086200666,615.747291752813,333.8484460403665
203.29,203.29,888.7443932377737,615.7532817901773,333.86583562732704
203.297,203.297,888.7522852947626,615.7637744817347,333.87816756409217
203.303,203.303,888.7614002165418,615.7794806431386,333.88229838265096
203.31,203.31,888.7735834298957,615.800842895035,333.8903731678431
203.317,203.317,888.7903642769174,615.8279933799166,333.91525782563565
203.324,203.324,888.8132962400409,615.86074853461,333.9617704795373
203.33,203.33,888.8442802769993,615.8988739405587,334.0343581842039
203.337,203.337,888.8857303645271,615.9424627651043,334.13648079710373
