Time,Time,Sum Acc X,Sum Acc Y,Sum Acc Z
84.3345,84.3345,0.0003467365308475333,0.0009247982164352924,5.9954527709025073e-05
84.3413,84.3413,0.003106440617523031,0.008210058088300182,0.0005447109108229125
84.348,84.348,0.013899564369338153,0.036367135347433174,0.0024854510454715814
84.3548,84.3548,0.04226676567752506,0.10928085234275649,0.007739224685339037
84.3615,84.3615,0.09995998163442094,0.25467093272551733,0.01878961790528752
84.3683,84.3683,0.19838571416374134,0.4963429867716904,0.03834756120713939
84.375,84.375,0.34621078369137204,0.8479534156547757,0.06892722949304883
84.3818,84.3818,0.5473818235627369,1.309956283068079,0.11241180062629445
84.3885,84.3885,0.7998360974249129,1.869856265375312,0.1696331654270769
84.3953,84.3953,1.0954104081272682,2.504926534089441,0.2401415119123808
84.402,84.402,1.421103510006223,3.186272167199128,0.32230382910747246
84.4088,84.4088,1.7611782265804017,3.8833097963662437,0.41361765483390395
84.4155,84.4155,2.099402671768753,4.567981843719982,0.5109670422619772
84.4223,84.4223,2.4210206645030294,5.218131535845611,0.6106284443621769
84.429,84.429,2.714468190208916,5.819429913397928,0.7080623388720617
84.4358,84.4358,2.9730088251203313,6.365420914856701,0.797844049732482
84.4425,84.4425,3.1958268869984723,6.855935775941752,0.8742542824212113
84.4493,84.4493,3.387582140199134,7.2947055846450946,0.9326491174244173
84.456,84.456,3.5562296008311356,7.68698225129247,0.9709640356874991
84.4628,84.4628,3.7100979017879703,8.03777870768162,0.9904045450034431
84.4695,84.4695,3.855425010248526,8.351063722415818,0.9948960658040702
84.4763,84.4763,3.9950504357533894,8.629751398102782,1.0001281894607832
84.483,84.483,4.128398022806017,8.876034765429837,1.0100898319455407
84.4898,84.4898,4.252365150008823,9.091779956834296,1.0211287593740512
84.4965,84.4965,4.362511493057016,9.278889128595763,1.0315645609838082
84.5033,84.5033,4.4542084461492255,9.439494119490353,1.0419202852452547
84.51,84.51,4.523713780490293,9.575883991875155,1.0546601953316406
84.5168,84.5168,4.569058000526545,9.690300171353183,1.0733609004286564
84.5235,84.5235,4.5904833683379405,9.784777941763425,1.1015749069934488
84.5303,84.5303,4.590682414151436,9.861020597705854,1.1418075130040404
84.537,84.537,4.608847868083104,9.92022735653918,1.194848962107398
84.5438,84.5438,4.640873735943742,9.96290533274314,1.2595519198096734
84.5505,84.5505,4.68292136995759,9.988707220206615,1.3330765495004897
84.5573,84.5573,4.731683045005374,9.996285359036808,1.4114667306318693
84.564,84.564,4.784288761548084,10.009323676219742,1.4903561984643017
84.5708,84.5708,4.838193813892259,10.046129215070016,1.5657054517337958
84.5775,84.5775,4.891343144678876,10.109829428331109,1.6344859871489845
84.5843,84.5843,4.942557395758289,10.202430770410425,1.6951297298761374
84.591,84.591,4.991812792215223,10.323865132231091,1.747565449084356
84.5978,84.5978,5.040254513735474,10.47155600761512,1.7928295541550192
84.6045,84.6045,5.090140012022911,10.64059805776062,1.8323873459525355
84.6113,84.6113,5.144918250676484,10.824467091613794,1.867387982556725
84.618,84.618,5.209204953007837,11.016081564498739,1.8982165193149596
84.6248,84.6248,5.288006673389194,11.208937370576155,1.924668036817747
84.6315,84.6315,5.3853534669896055,11.397833142996511,1.946686379843441
84.6383,84.6383,5.5042771818207905,11.57869074881923,1.965233687078135
84.645,84.645,5.648404429460716,11.747850626607297,1.9827335700172377
84.6518,84.6518,5.821625075714793,11.901739857588844,2.002605816495915
84.6585,84.6585,6.024833784439024,12.037085454914553,2.0278294080603856
84.6653,84.6653,6.253540188750836,12.151693352198533,2.059306299194169
84.672,84.672,6.498279535808325,12.246070887522393,2.095159811726598
84.6788,84.6788,6.746303327354979,12.325427923114047,2.1313423514035033
84.6855,84.6855,6.983456099379271,12.400825805534003,2.1629982007448234
84.6923,84.6923,7.19630940465967,12.48856865376487,2.1858410253450966
84.699,84.699,7.3742402846219495,12.607958975316238,2.1971055448902583
84.7058,84.7058,7.510689405855653,12.778319369545345,2.1982787302255913
84.7125,84.7125,7.603440903349218,13.016164028169465,2.2109335056655834
84.7193,84.7193,7.654383780844446,13.33293531859088,2.2326082044024522
84.726,84.726,7.668932470275111,13.733495759130808,2.2596504567471465
84.7328,84.7328,7.6829949500176715,14.21555581487937,2.2874750249212767
84.7395,84.7395,7.717120240186081,14.770042647988205,2.310800820009588
84.7463,84.7463,7.76332445735483,15.38223230168898,2.3239836034756918
84.753,84.753,7.814766804006382,16.03348079926299,2.3263991636554806
84.7598,84.7598,7.865834717164862,16.70334704029121,2.348930232679635
84.7665,84.7665,7.912150558603515,17.371736869411173,2.394345556062418
84.7733,84.7733,7.950467947005254,18.02069597812011,2.462922825411081
84.78,84.78,7.978190145589735,18.63563822629271,2.551930903234045
84.7868,84.7868,7.992651084101688,19.20603183625618,2.6556016708887156
84.7935,84.7935,7.994247648442448,19.72582677194155,2.7658636335940368
84.8003,84.8003,8.013406617506636,20.19390224383929,2.873776085440178
84.807,84.807,8.048253693361078,20.614582146997037,2.97114653054855
84.8138,84.8138,8.092705512552959,20.998015264352446,3.051842472795638
84.8205,84.8205,8.137488155826821,21.359891024044792,3.1126558678700396
84.8273,84.8273,8.172011198901693,21.71994049942172,3.1536214468503614
84.834,84.834,8.186264810581344,22.099350919911462,3.1776536415597074
84.8408,84.8408,8.200166588514486,22.51798986809356,3.1896769887428924
84.8475,84.8475,8.247234122961917,22.992268692972655,3.195731943059727
84.8543,84.8543,8.329615683352456,23.533769753816518,3.20237384514973
84.861,84.861,8.44676673513348,24.14847157884195,3.216246417232111
84.8678,84.8678,8.595491712549077,24.836609735533205,3.243410799010985
84.8745,84.8745,8.770144166653232,25.593323004767385,3.28807110738
84.8813,84.8813,8.963277652031453,26.410242252191537,3.350880116110315
84.888,84.888,9.166607773187126,27.277884276151656,3.427655521139451
84.8948,84.8948,9.371784299508752,28.18798661054023,3.509483351328788
84.9015,84.9015,9.56931343148244,29.133269797506806,3.584147605068884
84.9083,84.9083,9.73819701846565,30.097429985475124,3.6363044421758968
84.915,84.915,9.823767669698565,31.023877907915068,3.645279235869668
84.9218,84.9218,9.91503139349848,31.77562709979124,3.702889917522281
84.9285,84.9285,10.27361474237912,32.144827389672315,3.839942098826186
84.9353,84.9353,10.928155995161877,32.34640196949001,4.044431578532576
84.942,84.942,11.82723371425123,33.182460563914624,4.2777790526591035
84.9488,84.9488,12.870451552582011,34.55739240153343,4.487319086168741
84.9555,84.9555,13.952430751246895,36.25796432324499,4.625959353028335
84.9623,84.9623,14.98818938121174,38.024000487851445,4.669852044926606
84.969,84.969,15.916803014346831,39.60898088510665,4.714376552841786
84.9758,84.9758,16.697645877948393,40.820417410473105,4.818000503567982
84.9825,84.9825,17.30933010902842,41.544344132912535,4.943486902095959
84.9893,84.9893,17.75001216211487,41.755676850889806,5.0578955052515155
84.996,84.996,18.034520969551313,41.9994335694489,5.13732994374172
85.0028,85.0028,18.188446971232853,42.58062896773087,5.166933106004317
85.0095,85.0095,18.242780027925992,43.35314893074234,5.194217027999683
85.0163,85.0163,18.25518494156235,44.17373506951923,5.278584305373501
85.023,85.023,18.30297306823239,44.925529793618495,5.4138183146440655
85.0298,85.0298,18.359873671733197,45.5305995837913,5.5879758540123055
85.0365,85.0365,18.406872489254344,45.95209969211782,5.785124179090127
85.0433,85.0433,18.432213088141683,46.18920317597325,5.988010083675866
85.05,85.05,18.434170118791567,46.26829494031838,6.1807814574489335
85.0568,85.0568,18.464105052849032,46.30372681724552,6.3509489702433575
85.0635,85.0635,18.518862830359588,46.403179084399305,6.490232819178887
85.0703,85.0703,18.592841586173577,46.51822749730224,6.594374793395253
85.077,85.077,18.679334987871158,46.60961864752295,6.66234621035386
85.0838,85.0838,18.771342486239167,46.651581099356754,6.695472840044893
85.0905,85.0905,18.86200544712539,46.67005283802227,6.6967746471740535
85.0973,85.0973,18.945197786235678,46.74658569014265,6.723027513861125
85.104,85.104,19.016430891970558,46.868605073399394,6.771701156836903
85.1108,85.1108,19.073611428452292,47.01734661051168,6.837162166765232
85.1175,85.1175,19.117077219980047,47.17207312396508,6.913479369535288
85.1243,85.1243,19.149027509645073,47.31391688523663,6.994542094021223
85.131,85.131,19.172965383863442,47.42859467212666,7.074282903093624
85.1378,85.1378,19.19334309471565,47.50736501744039,7.146884762159265
85.1445,85.1445,19.215130845090545,47.546196768572244,7.206863702796248
85.1513,85.1513,19.24321407499795,47.54828748029266,7.249262395881463
85.158,85.158,19.281665897665615,47.590427500207795,7.270248763841499
85.1648,85.1648,19.332897768783923,47.67012379149016,7.272475188544491
85.1715,85.1715,19.39690061068454,47.78276413654145,7.29691903109041
85.1783,85.1783,19.47082125477009,47.920819628140634,7.339561009606173
85.185,85.185,19.54905864137384,48.07351229385237,7.393873071900072
85.1918,85.1918,19.624168936457338,48.22754904365032,7.452042590451386
85.1985,85.1985,19.688448129620173,48.36878483485614,7.506560896383802
85.2053,85.2053,19.735366980515227,48.48421023828018,7.551683124212966
85.212,85.212,19.760205673863737,48.56367851290127,7.584352263413492
85.2188,85.2188,19.760378062332688,48.60098194541117,7.604430973912642
85.2255,85.2255,19.786925346585,48.60783895432169,7.6143628252426945
85.2323,85.2323,19.839766656571708,48.656944291122876,7.6184481545192
85.239,85.239,19.917296999699104,48.74296130459577,7.621780073740471
85.2458,85.2458,20.016403540842152,48.85779774273778,7.628896898978786
85.2525,85.2525,20.133002006598236,48.991745961598,7.642459936361894
85.2593,85.2593,20.262979123018187,49.13504664687905,7.662436914702832
85.266,85.266,20.403000798654414,49.279546587736945,7.686094212359034
85.2728,85.2728,20.5508596013156,49.420135160652094,7.708727617773524
85.2795,85.2795,20.705524523425893,49.555660526876046,7.724823603788007
85.2863,85.2863,20.867188636892312,49.68909096055916,7.7292827666347765
85.293,85.293,21.03726955263628,49.82684618497493,7.740188279858493
85.2998,85.2998,21.21817088858736,49.977402434167125,7.768319498250983
85.3065,85.3065,21.41282988023521,50.149418321927435,7.813658844507436
85.3133,85.3133,21.62412447351681,50.34970085296413,7.874653623158807
85.32,85.32,21.85413566433735,50.58140761852773,7.948741823561577
85.3268,85.3268,22.10340002269634,50.842987421845464,8.032928848082431
85.3335,85.3335,22.370534034824587,51.12830559510536,8.124303017503665
85.3403,85.3403,22.6526056123821,51.428041263931945,8.220429281632807
85.347,85.347,22.946194788976694,51.73198457644578,8.319688734420948
85.3538,85.3538,23.24866235790116,52.03154736145694,8.421606712253665
85.3605,85.3605,23.559219159511994,52.32176101335312,8.526918825836297
85.3673,85.3673,23.879624889991337,52.60242145948656,8.636971835452206
85.374,85.374,24.214307379361387,52.87854677642425,8.752426802759826
85.3808,85.3808,24.56970698541454,53.160420399357314,8.871820652032866
85.3875,85.3875,24.952798058880564,53.46323208387609,8.990841435819442
85.3943,85.3943,25.36854754309565,53.80586432704939,9.102994742549866
85.401,85.401,25.81614058087668,54.20798171874514,9.201882369674125
85.4078,85.4078,26.28501292329751,54.684828014183935,9.28472847104645
85.4145,85.4145,26.753016663098226,55.23996844033576,9.35559374039272
85.4213,85.4213,27.185312105353265,55.85519000332776,9.423839294619913
85.428,85.428,27.526534267985657,56.468812444035095,9.49280195215573
85.4348,85.4348,27.692582929446633,56.941608462303904,9.544862913793905
85.4415,85.4415,27.795975597500405,57.05432951557572,9.548056514469806
85.4483,85.4483,28.22540759434938,57.525991630978574,9.643164963834348
85.455,85.455,28.9629138299332,58.6978672670119,9.837810172446549
85.4618,85.4618,29.92012009032243,60.51260150336904,10.099153173346426
85.4685,85.4685,30.972916244733607,62.75995640091235,10.364431185981205
85.4753,85.4753,31.99849689502637,65.14957986485108,10.566340093019873
85.482,85.482,32.89676264550011,67.38577432381551,10.659437951567815
85.4888,85.4888,33.59834260011958,69.22175911911023,10.68439628686272
85.4955,85.4955,34.0689467821143,70.49608208785745,10.802599805077145
85.5023,85.5023,34.31050809500481,71.1522267044072,10.968871275042888
85.509,85.509,34.35425682656167,71.23693006265704,11.134381247507141
85.5158,85.5158,34.461195118761616,71.59601923771724,11.259058191002786
85.5225,85.5225,34.66823995694723,72.22539744959872,11.316446677182661
85.5293,85.5293,34.928371487339845,72.94322924034093,11.339773082996707
85.536,85.536,35.201379665359646,73.59093946825462,11.445854350982161
85.5428,85.5428,35.456184165986855,74.05385703060364,11.626108693429716
85.5495,85.5495,35.67229761383858,74.26963940022583,11.862231420579235
85.5563,85.5563,35.83940731730544,74.31303231306742,12.128435368271312
85.563,85.563,35.95538370703497,74.586601902236,12.395179661116797
85.5698,85.5698,36.023924868439714,75.0334794354901,12.634020471495672
85.5765,85.5765,36.05264661354732,75.58315638350594,12.822742344868303
85.5833,85.5833,36.05364122247801,76.16474362073166,12.949032254651117
85.59,85.59,36.073132104647186,76.71822013350521,13.011049189374793
85.5968,85.5968,36.10007959461165,77.20273951848016,13.015325788018199
85.6035,85.6035,36.12449257038765,77.60017548727193,13.056391518699018
85.6103,85.6103,36.13857796379071,77.91274747861175,13.12611391900576
85.617,85.617,36.13889529906754,78.15659375589976,13.204980383915917
85.6238,85.6238,36.149837494751296,78.35503123255731,13.273279520388703
85.6305,85.6305,36.164561020808954,78.53349666314347,13.314845997763792
85.6373,85.6373,36.17380843526756,78.71552511746698,13.320588831341297
85.644,85.644,36.177491293785494,78.91887502594808,13.350858831901602
85.6508,85.6508,36.1970754285886,79.15220008595739,13.408917380822176
85.6575,85.6575,36.22968303364259,79.4132207570554,13.480431481565814
85.6643,85.6643,36.26651671372139,79.68890808075395,13.548060308760956
85.671,85.671,36.2939130348357,79.95758966152923,13.594484374411078
85.6778,85.6778,36.295115071492255,80.19235078204049,13.60488022346876
85.6845,85.6845,36.337972626199374,80.36489770334065,13.64103717575853
85.6913,85.6913,36.441779441401735,80.449436792899,13.72870256045394
85.698,85.698,36.62012925593744,80.47254996620812,13.866400069215858
85.7048,85.7048,36.88110437228335,80.61401071395679,14.045980515823938
85.7115,85.7115,37.226018042007134,80.87442906043883,14.25360204415228
85.7183,85.7183,37.64968424510695,81.24523388883651,14.472205941063743
85.725,85.725,38.1419614286978,81.71122261913825,14.684652076376125
85.7318,85.7318,38.68977302957261,82.25388584866151,14.876229387399663
85.7385,85.7385,39.2788422128752,82.85469657145119,15.036076373503601
85.7453,85.7453,39.89357176708039,83.49654512572198,15.157386293027239
85.752,85.752,40.50960326983859,84.15826071432015,15.234516601110839
85.7588,85.7588,41.07587695687865,84.79759843197704,15.256419313363525
85.7655,85.7655,41.50291967825188,85.32988770270158,15.3084539783054
85.7723,85.7723,41.684852543213445,85.62499837260695,15.449761607836036
85.779,85.779,41.81808759498036,85.70942963013422,15.67424196958363
85.7858,85.7858,42.260632599798114,86.27123574926416,15.94574295006757
85.7925,85.7925,42.935089943832594,87.31838038068967,16.206606157854914
85.7993,85.7993,43.72859992742744,88.75837136916404,16.396583597429302
85.806,85.806,44.52777281510832,90.42098164291826,16.47080298411049
85.8128,85.8128,45.23748023002424,92.09972092455563,16.530838863625632
85.8195,85.8195,45.78850259525186,93.59664498073298,16.71423200918082
85.8263,85.8263,46.14113608722925,94.75895258929377,16.985273179693692
85.833,85.833,46.285615557526555,95.50061769975892,17.293743598989003
85.8398,85.8398,46.332746258735696,95.80760130259503,17.58688739414399
85.8465,85.8465,46.53498244908961,95.88581624571547,17.819028221473246
85.8533,85.8533,46.84355072808381,96.25406240495846,17.957355198123622
85.86,85.86,47.205978669503786,96.79411851201313,17.984652510605134
85.8668,85.8668,47.57427551814805,97.38736970854994,18.06934526854162
85.8735,85.8735,47.9109123755637,97.93320434390371,18.252010685558957
85.8803,85.8803,48.1917701578561,98.36046515381886,18.50700572682778
85.887,85.887,48.40639737340868,98.63147384283045,18.80196635275912
85.8938,85.8938,48.55625797124382,98.7398426700144,19.103223076641235
85.9005,85.9005,48.651435044812516,98.77555628886228,19.3807587953632
85.9073,85.9073,48.706587233443564,98.92009374906145,19.61167318110508
85.914,85.914,48.737494119848506,99.12998227550021,19.78140946445719
85.9208,85.9208,48.75876032139221,99.36148358918636,19.88341099738979
85.9275,85.9275,48.78218141741908,99.57741411616088,19.918790331192564
85.9343,85.9343,48.81564550145735,99.75195399955534,19.941001525728588
85.941,85.941,48.86301365930673,99.87252108453302,20.004195773223604
85.9478,85.9478,48.9248117394343,99.93852412030101,20.086521912829035
85.9545,85.9545,48.99893314117694,99.95811056715405,20.164845402528282
85.9613,85.9613,49.08102015770679,99.97168625153574,20.218558210264476
85.968,85.968,49.16486946588686,100.00322454698858,20.23213367433863
85.9748,85.9748,49.24315477550266,100.03820644592919,20.267622912702006
85.9815,85.9815,49.30840912569555,100.06473028796616,20.353771024517307
85.9883,85.9883,49.35402926447388,100.07440989033196,20.48512336365896
85.995,85.995,49.3752714212271,100.08649273491223,20.650282991756825
86.0018,86.0018,49.379959858772885,100.12222659301847,20.833310340054346
86.0085,86.0085,49.40740573900284,100.18062219077075,21.015344212899425
86.0153,86.0153,49.448942496266326,100.25722405855792,21.176513653539686
86.022,86.022,49.4910587857231,100.34315345934358,21.29801814966744
86.0288,86.0288,49.51711786326744,100.4246868983957,21.364170222917956
86.0355,86.0355,49.524885353094106,100.48390303882594,21.364177199252858
86.0423,86.0423,49.58367345316242,100.50033790466932,21.434857236408448
86.049,86.049,49.70871549145572,100.54739983433771,21.57380025906431
86.0558,86.0558,49.91196697115841,100.67643258048251,21.771757410651446
86.0625,86.0625,50.20077956498986,100.9014476156675,22.0136723151166
86.0693,86.0693,50.57688864189128,101.23049045698151,22.28052859097017
86.076,86.076,51.036140975104175,101.66505440447828,22.552025876916492
86.0828,86.0828,51.56912779504807,102.20045240421008,22.809892641060504
86.0895,86.0895,52.1626384259348,102.8271905287481,23.04123522974574
86.0963,86.0963,52.80160733555192,103.53305598515733,23.240951457872672
86.103,86.103,53.4696444019324,104.30413744311451,23.411722062250988
86.1098,86.1098,54.14255245405428,105.1203997772763,23.55873063896992
86.1165,86.1165,54.77195990014425,105.9429023732861,23.678329386852038
86.1233,86.1233,55.27440959968432,106.69920280434144,23.750527063910344
86.13,86.13,55.55219345177284,107.28140277807024,23.752478622667674
86.1368,86.1368,55.56195100270846,107.56686447975802,23.84096263506617
86.1435,86.1435,55.853217979117325,107.67565587821439,24.001654809039096
86.1503,86.1503,56.36141267301243,108.20955897540244,24.198577518014545
86.157,86.157,56.998795182172515,109.11191724645609,24.389018090840036
86.1638,86.1638,57.6810201026237,110.2493917316141,24.538275378352182
86.1705,86.1705,58.335528630949426,111.44687648658122,24.627981387402496
86.1773,86.1773,58.902628952461214,112.52979752043215,24.656527610812994
86.184,86.184,59.3388007260819,113.36024541195725,24.67818967116538
86.1908,86.1908,59.62191743630162,113.85971762275216,24.73137161492363
86.1975,86.1975,59.75328355139762,114.01566054076986,24.79397918681498
86.2043,86.2043,59.75405545529948,114.15833583056457,24.844870748034023
86.211,86.211,59.85004577608829,114.51571513237418,24.8680284477337
86.2178,86.2178,60.00430476578738,114.98688332193746,24.880445092922745
86.2245,86.2245,60.18101896119912,115.47424811659873,24.927126399409442
86.2313,86.2313,60.3523009682131,115.89884195334253,24.999262953188094
86.238,86.238,60.50032980783912,116.20900761105781,25.084202211466547
86.2448,86.2448,60.616743845733545,116.38247107377721,25.169385413727507
86.2515,86.2515,60.70042163873714,116.42300205421715,25.24495687030672
86.2583,86.2583,60.754829469873556,116.49242979110652,25.304650584804513
86.265,86.265,60.7857397482035,116.637907861166,25.34557839693283
86.2718,86.2718,60.79954372620313,116.8226091488989,25.36756898770317
86.2785,86.2785,60.80210882592046,117.01337788202581,25.372327852800698
86.2853,86.2853,60.80604761214429,117.18518092811902,25.38210938316597
86.292,86.292,60.81296897019374,117.32321107991726,25.403608919344112
86.2988,86.2988,60.82060748339999,117.42284901100042,25.434510528450083
86.3055,86.3055,60.82849550088497,117.48802157236234,25.473036634558788
86.3123,86.3123,60.83855022830281,117.52877034109414,25.517427278101103
86.319,86.319,60.85502766677037,117.55866876446474,25.56559264261851
86.3258,86.3258,60.88333119965369,117.59191929973572,25.615312305423615
86.3325,86.3325,60.927681538823535,117.63973806777918,25.66462696101502
86.3393,86.3393,60.98900761030572,117.70669113106636,25.712066811101515
86.346,86.346,61.063786685926196,117.78827427124239,25.75673566645285
86.3528,86.3528,61.14329695569568,117.87041450718738,25.798420742797987
86.3595,86.3595,61.213480330549835,117.93092338445139,25.837833436360803
86.3663,86.3663,61.25616521572464,117.94269492319799,25.876908764542968
86.373,86.373,61.26071015924917,118.00728248988378,25.91883039599335
86.3798,86.3798,61.33071732474932,118.1717437639697,25.967423630982754
86.3865,86.3865,61.48021705791398,118.45174294572227,26.025884902201295
86.3933,86.3933,61.71723368083885,118.85315617142518,26.095156945954997
86.4,86.4,62.043116482357945,119.37241532294371,26.17260020836172
86.4068,86.4068,62.452777917729726,119.99876631253721,26.251849763450522
86.4135,86.4135,62.935404107037165,120.71743265116912,26.324294563217958
86.4203,86.4203,63.475508638225854,121.5126625769176,26.38166460803923
86.427,86.427,64.0541931641901,122.36970972989533,26.418745549226784
86.4338,86.4338,64.64736595852024,123.2731825702357,26.434308222999885
86.4405,86.4405,65.21370803752926,124.196875646907,26.441544416719967
86.4473,86.4473,65.67683970531466,125.08452822740932,26.479301093920157
86.454,86.454,65.92983749001668,125.83369362032028,26.55876429651709
86.4608,86.4608,65.97957587777938,126.30322887351379,26.678970714700434
86.4675,86.4675,66.35757856577393,126.35389078927963,26.814355035590978
86.4743,86.4743,67.01127010549482,126.80281944945447,26.919575320266933
86.481,86.481,67.84349388745487,127.73363282650602,26.946833155764892
86.4878,86.4878,68.75290569961139,129.0275898243203,27.03080845490354
86.4945,86.4945,69.65438605270707,130.49563177710488,27.234668186856556
86.5013,86.5013,70.4807974081079,131.92488583884725,27.5400734366975
86.508,86.508,71.17976438754178,133.1243216033597,27.906647437832667
86.5148,86.5148,71.71484788691478,133.95918748320065,28.28199510886614
86.5215,86.5215,72.07027454218097,134.36917830635312,28.612722028961244
86.5283,86.5283,72.25301220675968,134.36939049994348,28.85361649677187
86.535,86.535,72.28875826424289,134.70482359238062,28.97420936650771
86.5418,86.5418,72.36348143507834,135.26385500277956,28.986153323879574
86.5485,86.5485,72.50904483278481,135.92364991875954,29.124790849026937
86.5553,86.5553,72.68822161995712,136.57188680733813,29.369593818540707
86.562,86.562,72.86958333777176,137.12175263524315,29.690284901556907
86.5688,86.5688,73.02948088075308,137.5193656586389,30.051605178040543
86.5755,86.5755,73.15292487345683,137.74442884080904,30.417340813988574
86.5823,86.5823,73.23325057799276,137.805715143744,30.75391484880344
86.589,86.589,73.27070719418113,137.8781656331455,31.033728324282183
86.5958,86.5958,73.27085569036387,138.04219419710026,31.23784089004513
86.6025,86.6025,73.30026922516977,138.25231119333765,31.35736192135332
86.6093,86.6093,73.34941504615176,138.4669379398908,31.393278325243834
86.616,86.616,73.40928688784355,138.6534816290199,31.431604170323777
86.6228,86.6228,73.47269861380114,138.79105001138382,31.52877302915636
86.6295,86.6295,73.53523182905717,138.87086993489638,31.66613288630714
86.6363,86.6363,73.59566363288133,138.89448510643064,31.82460521250231
86.643,86.643,73.65512108482436,138.91850356716955,31.986877250880934
86.6498,86.6498,73.71589275146908,138.97728262589604,32.13884934705476
86.6565,86.6565,73.78042009423201,139.0551818655332,32.27072145270371
86.6633,86.6633,73.84877749685242,139.13626599087223,32.37710568117213
86.67,86.67,73.91666264673842,139.20821883309503,32.455538241693255
86.6768,86.6768,73.97775159682446,139.26512675924212,32.50449446637407
86.6835,86.6835,74.02845942311937,139.30732934688467,32.52234227634435
86.6903,86.6903,74.07045667163597,139.3391354201567,32.537312118018285
86.697,86.697,74.10956904436118,139.36626585863422,32.58618720948652
86.7038,86.7038,74.1527222529594,139.39412223533026,32.66821295504141
86.7105,86.7105,74.20503361948705,139.42685534996355,32.779370993993005
86.7173,86.7173,74.26812939281048,139.46681332359256,32.91153701106733
86.724,86.724,74.33994597516191,139.5142520313578,33.05290668408868
86.7308,86.7308,74.4158398083022,139.56749775341837,33.189671405802336
86.7375,86.7375,74.49027203051,139.62359281619533,33.30830623306016
86.7443,86.7443,74.55823523987335,139.67920317583142,33.3977598245094
86.751,86.751,74.61619948454138,139.73150984239854,33.451090832570834
86.7578,86.7578,74.66275011206962,139.778792517681,33.46633394432883
86.7645,86.7645,74.69889762573321,139.8205344166622,33.48614982299408
86.7713,86.7713,74.72781644112031,139.8571639165272,33.53380385932698
86.778,86.778,74.75393550556623,139.88969079363142,33.59936390352336
86.7848,86.7848,74.78170106910412,139.9193984789843,33.67205951251609
86.7915,86.7915,74.81451634553514,139.94761280786472,33.74211544540971
86.7983,86.7983,74.85417992702769,139.97551438259492,33.802109914219365
86.805,86.805,74.9008475788723,140.00399593555935,33.847618988394125
86.8118,86.8118,74.95338291894969,140.03359379708365,33.87716369083255
86.8185,86.8185,75.00994156021159,140.06448271127837,33.89166676558717
86.8253,86.8253,75.06861511489524,140.0964829037528,33.893693258760884
86.832,86.832,75.12794069948998,140.1290524234217,33.900688993182605
86.8388,86.8388,75.18717840779992,140.16127637407394,33.91296125537458
86.8455,86.8455,75.24644997675122,140.19185493640364,33.92683553596389
86.8523,86.8523,75.30678402431363,140.21912042993296,33.93883324182189
86.859,86.859,75.36976947472628,140.24120784109533,33.945617953183934
86.8658,86.8658,75.43662316406292,140.25644171896874,33.9472822688187
86.8725,86.8725,75.50718312655265,140.26381300284592,33.96023334484248
86.8793,86.8793,75.57953819603334,140.26423833986186,33.98615274137552
86.886,86.886,75.65040057530219,140.27109012522035,34.02467765680434
86.8928,86.8928,75.71586953821928,140.28175270969422,34.072854069620355
86.8995,86.8995,75.77225708070864,140.2927193219137,34.12513545330156
86.9063,86.9063,75.81676583490768,140.30011715718916,34.17387890144246
86.913,86.913,75.8479104721072,140.3002723304472,34.21031798207702
86.9198,86.9198,75.86567729721776,140.31031701846427,34.22604261936852
86.9265,86.9265,75.87141793844937,140.33239971089623,34.23728150942249
86.9333,86.9333,75.87540177872971,140.36701097608093,34.2779348502791
86.94,86.94,75.88650086406639,140.41329472276917,34.34575069672004
86.9468,86.9468,75.90239858342112,140.46930916200475,34.43392874064647
86.9535,86.9535,75.92137958144306,140.5324926692034,34.53232356178335
86.9603,86.9603,75.94224281873262,140.60020597633127,34.62942326717191
86.967,86.967,75.96356803132367,140.67024249881408,34.71465411472967
86.9738,86.9738,75.98267131852306,140.7413810512021,34.780364101639286
86.9805,86.9805,75.99581539875699,140.81389688638518,34.8225796261502
86.9873,86.9873,75.99922419889872,140.88903880750365,34.84011237249935
86.994,86.994,76.00994871791197,140.96690119005567,34.84724987646329
87.0008,87.0008,76.04063489095994,141.0442795523793,34.87889776498399
87.0075,87.0075,76.09653829712587,141.1143929278779,34.935016230994
87.0143,87.0143,76.17890345114776,141.16856875772152,35.01506262273199
87.021,87.021,76.28342502656572,141.19889151960675,35.11649878720572
87.0278,87.0278,76.4013458488762,141.2007509197218,35.233432086398096
87.0345,87.0345,76.52180800437942,141.22700994573674,35.35657687495762
87.0413,87.0413,76.63419792452305,141.27578691266277,35.47483211711675
87.048,87.048,76.72996488470339,141.3373927126173,35.5778469334719
87.0548,87.0548,76.8036696007074,141.40037083195935,35.65835668735397
87.0615,87.0615,76.8531305049654,141.45414543703546,35.71319384443738
87.0683,87.0683,76.87881018397901,141.4910122156941,35.74271582901564
87.075,87.075,76.88292205199018,141.5069580608126,35.74923002090132
87.0818,87.0818,76.89714546051745,141.51249417315256,35.7630888120835
87.0885,87.0885,76.92596841408262,141.53750362735622,35.795232572236124
87.0953,87.0953,76.96554525424546,141.57849214089322,35.84404028333508
87.102,87.102,77.01218145485382,141.63141226850917,35.907682224580185
87.1088,87.1088,77.06246790387989,141.69225146161148,35.98340087956968
87.1155,87.1155,77.11335095624919,141.75726397998483,36.067199727184274
87.1223,87.1223,77.16216715891044,141.82297421864402,36.15409428099361
87.129,87.129,77.20665904849162,141.88614233492817,36.23877667654068
87.1358,87.1358,77.24501975924053,141.94384806790572,36.31646771264337
87.1425,87.1425,77.27600871153749,141.99373066973163,36.38378276613388
87.1493,87.1493,77.2990868088914,142.0343073232762,36.439431617110145
87.156,87.156,77.31442187031246,142.06523369622866,36.48450765227027
87.1628,87.1628,77.32271331781266,142.0873731697887,36.52214711037958
87.1695,87.1695,77.32497929522124,142.10263633544858,36.55658301096653
87.1763,87.1763,77.32751328771363,142.1136601255756,36.59192189984812
87.183,87.183,77.3334539595948,142.12339356666,36.63106447567506
87.1898,87.1898,77.34132957271703,142.13461758373205,36.67506949139425
87.1965,87.1965,77.34976614211743,142.1494540408049,36.72306696027545
87.2033,87.2033,77.35765162434745,142.16897901480172,36.772651462182125
87.21,87.21,77.36419581874405,142.19306121984758,36.820566749582355
87.2168,87.2168,77.36890942344762,142.22047235708965,36.863452501350814
87.2235,87.2235,77.37154530369024,142.24923193635738,36.898483223198895
87.2303,87.2303,77.37198399593579,142.27710552884378,36.92384488693716
87.237,87.237,77.3738948124447,142.30213704095985,36.93904413408253
87.2438,87.2438,77.37847353346602,142.3230698981719,36.94498287235625
87.2505,87.2505,77.38625078373884,142.33956639623295,36.94623471670709
87.2573,87.2573,77.39789867247102,142.3522300216701,36.95189292325883
87.264,87.264,77.41404078101792,142.36246735895998,36.95898459135405
87.2708,87.2708,77.43500367422959,142.37220263412036,36.96484976000357
87.2775,87.2775,77.46059541683593,142.3834729624251,36.9675657566665
87.2843,87.2843,77.48962983785326,142.39795479328714,36.968910450466645
87.291,87.291,77.51935292078595,142.41671044104072,36.974104406413005
87.2978,87.2978,77.54638752250034,142.4406262554168,36.98166075155835
87.3045,87.3045,77.56863318267459,142.47088033378492,36.98858643518178
87.3113,87.3113,77.58473729008281,142.50795124903652,36.99078471562849
87.318,87.318,77.59190313145939,142.54962473160876,36.99693043998488
87.3248,87.3248,77.59768220388932,142.59019379347885,37.012651721110245
87.3315,87.3315,77.61898408909798,142.62184571609183,37.035824396656565
87.3383,87.3383,77.65501400231804,142.63734611500945,37.06125038682406
87.345,87.345,77.7015709994911,142.64213475683772,37.08191315734756
87.3518,87.3518,77.75217661885877,142.6669121347603,37.090770780358234
87.3585,87.3585,77.79961473466969,142.70707009140764,37.098982225256066
87.3653,87.3653,77.83743068734695,142.75508762603286,37.12641517819731
87.372,87.372,77.86096999844023,142.80267207232822,37.17164489035937
87.3788,87.3788,77.86775243885486,142.84283200403382,37.23022136110786
87.3855,87.3855,77.87822758726251,142.87111055257753,37.29595687954285
87.3923,87.3923,77.90492833051319,142.88577666935433,37.362401604407225
87.399,87.399,77.94570525624835,142.88731607961216,37.424038258095436
87.4058,87.4058,77.99767171952051,142.89696602401327,37.47698322366137
87.4125,87.4125,78.05760663404564,142.91513622305968,37.51918326644978
87.4193,87.4193,78.12223450233957,142.93894058545237,37.55018115802339
87.426,87.426,78.18827585535197,142.96553896799796,37.57057807038435
87.4328,87.4328,78.25242802128908,142.9922051104281,37.581425952853124
87.4395,87.4395,78.31146065193994,143.01632383880542,37.58381170154749
87.4463,87.4463,78.36241677346713,143.03544480889707,37.58889783059394
87.453,87.453,78.40283743914068,143.04746388486353,37.60050640369264
87.4598,87.4598,78.43098480267327,143.05090326505533,37.61761927187181
87.4665,87.4665,78.44605248920568,143.0566372041985,37.639080252593985
87.4733,87.4733,78.44831080378489,143.07112547163263,37.66362467079128
87.48,87.48,78.45749476641551,143.09295895109037,37.689996462185775
87.4868,87.4868,78.47578546720885,143.11990615641457,37.71705363458595
87.4935,87.4935,78.50016581941196,143.14922575607537,37.74376158259276
87.5003,87.5003,78.52738893690591,143.1780818640783,37.76908567733843
87.507,87.507,78.5545206464784,143.20398070072378,37.79191010702812
87.5138,87.5138,78.57941123115283,143.2251647668665,37.81109040800939
87.5205,87.5205,78.60093375132854,143.24091342031514,37.82562223400298
87.5273,87.5273,78.6188692952592,143.25165672625317,37.83484073698799
87.534,87.534,78.63347760173387,143.2588148820421,37.83857435148877
87.5408,87.5408,78.64501835653343,143.2644018349343,37.83994962064968
87.5475,87.5475,78.65348206094022,143.2705478494659,37.84557793234174
87.5543,87.5543,78.65857528756918,143.2790867700662,37.85430156735673
87.561,87.561,78.65986112112925,143.29128567425954,37.86489962281139
87.5678,87.5678,78.66278504818844,143.30774389955656,37.876306017210105
87.5745,87.5745,78.67014455875515,143.3284410505648,37.88773100508471
87.5813,87.5813,78.68190401764016,143.35287618645455,37.898656267939266
87.588,87.588,78.69771280655439,143.38026152275592,37.908736597121646
87.5948,87.5948,78.71684150044779,143.4097662419811,37.91767212387495
87.6015,87.6015,78.73815498442356,143.44078544021963,37.92510285459915
87.6083,87.6083,78.7602219113215,143.47318233925273,37.93054534064414
87.615,87.615,78.78116388609114,143.50746996645998,37.93335100326236
87.6218,87.6218,78.79825555275966,143.54471922637612,37.934025174466726
87.6285,87.6285,78.80874228443466,143.5859759524191,37.93932694290365
87.6353,87.6353,78.8110146310658,143.63191562079746,37.95110029346496
87.642,87.642,78.81857294707707,143.6834864143033,37.97233416140604
87.6488,87.6488,78.83901541233546,143.74262123768253,38.00705636354716
87.6555,87.6555,78.87577838289383,143.81207716556221,38.05958127162427
87.6623,87.6623,78.93142498727241,143.89490824110655,38.13352717327551
87.669,87.669,79.0080712570731,143.99419611022,38.2308240341664
87.6758,87.6758,79.108199623996,144.1131390150765,38.350820628273155
87.6825,87.6825,79.23465013248384,144.2553277898982,38.48980156118368
87.6893,87.6893,79.3896282377711,144.4247878421711,38.64117577235671
87.696,87.696,79.57309733593272,144.62530320306914,38.796321571762775
87.7028,87.7028,79.78092240307625,144.85876623724326,38.94604445746694
87.7095,87.7095,80.00297833118645,145.12314028682533,39.08256562468383
87.7163,87.7163,80.2215694584662,145.41140522112713,39.20132695078352
87.723,87.723,80.4100371656299,145.71227495251202,39.30132429753457
87.7298,87.7298,80.53169406678009,146.01221231994563,39.3835023610254
87.7365,87.7365,80.54152338765982,146.29785332150138,39.448271801449295
87.7433,87.7433,80.68968193217576,146.55825191051264,39.493334151365225
87.75,87.75,81.03212422699013,146.78631774983316,39.51240732239144
87.7568,87.7568,81.58540349112255,146.97901832778652,39.52915721911781
87.7635,87.7635,82.34043335681645,147.13683351405746,39.59250979614801
87.7703,87.7703,83.26090925350346,147.2629905600151,39.71035111281821
87.777,87.777,84.28676088617124,147.36221241496025,39.88434550150713
87.7838,87.7838,85.34307888357732,147.43877287077052,40.10840242533235
87.7905,87.7905,86.35262826049788,147.49435488311946,40.36918787299163
87.7973,87.7973,87.2482373712431,147.52658313166526,40.64814476306779
87.804,87.804,87.98163024918932,147.5289542398265,40.92426159253175
87.8108,87.8108,88.52711984254475,147.56567867813732,41.17694557718922
87.8175,87.8175,88.8804866357787,147.65134741934514,41.38851492240683
87.8243,87.8243,89.05441082574146,147.79447337755505,41.54597561326088
87.831,87.831,89.07223420077587,148.00087096195645,41.64198621633594
87.8378,87.8378,89.18270390184864,148.2729093245071,41.67510552253659
87.8445,87.8445,89.39423897330914,148.60944519260633,41.70078756389987
87.8513,87.8513,89.68364698430825,149.0064455582934,41.776599292583846
87.858,87.858,90.03353609890644,149.458074020085,41.89074559343451
87.8648,87.8648,90.43258523233892,149.9578720686423,42.03005702253388
87.8715,87.8715,90.87482906424486,150.4997331315803,42.18171302428503
87.8783,87.8783,91.35851745712374,151.07855375767895,42.33465357353065
87.885,87.885,91.88486657510278,151.69056820859902,42.48051274415308
87.8918,87.8918,92.45672901771701,152.33337776952197,42.61404066254946
87.8985,87.8985,93.07715947950446,153.00568390180217,42.73304463422302
87.9053,87.9053,93.74804035261306,153.70673294099316,42.83791724997096
87.912,87.912,94.46902721070855,154.43545124438958,42.930891894472744
87.9188,87.9188,95.23700401895933,155.18934368952202,43.015175350189544
87.9255,87.9255,96.04617376564958,155.96341858681842,43.09406524629697
87.9323,87.9323,96.88877173184339,156.74942143736658,43.17019465134549
87.939,87.939,97.75617065568764,157.53555350220395,43.24498755878765
87.9458,87.9458,98.64008615585094,158.30681661761687,43.31820648552082
87.9525,87.9525,99.53359158724581,159.0460295039677,43.38756059737485
87.9593,87.9593,100.43156899416805,159.73533302211354,43.44872778682857
87.966,87.966,101.33027729283114,160.357867305451,43.4961634131203
87.9728,87.9728,102.2260778259959,160.8992122906398,43.52453237244381
87.9795,87.9795,103.11394275272379,161.34809137938927,43.53010262395027
87.9863,87.9863,103.9866071235483,161.69614705266113,43.548677734903166
87.993,87.993,104.83464771200346,161.93734135057667,43.590497356008115
87.9998,87.9998,105.64294004980833,162.0684167454119,43.65341329034331
88.0065,88.0065,106.37029267573566,162.08979419394814,43.73417490296015
88.0133,88.0133,106.90199506656293,162.17808020934802,43.82298302926964
88.02,88.02,106.99447209411021,162.3923220504251,43.891047069237565
88.0268,88.0268,107.70018861975107,162.78883296682645,43.89607457662231
88.0335,88.0335,109.5173519672928,163.46014076905468,44.02983228256694
88.0403,88.0403,112.48804848428973,164.47383208968472,44.32079308002819
88.047,88.047,116.30856303477704,165.80261520314727,44.75870848564046
88.0538,88.0538,120.46217954109859,167.31998360084472,45.30235756608067
88.0605,88.0605,124.40456204748045,168.85586931278092,45.89050606948567
88.0673,88.0673,127.68351352557309,170.256693168827,46.45292559287926
88.074,88.074,129.99980296476656,171.41999903987085,46.92319572616093
88.0808,88.0808,131.23372631193104,172.3031602884928,47.249332479713495
88.0875,88.0875,131.4368539788522,172.9139406379951,47.39954326565188
88.0943,88.0943,132.07996759593746,173.29189121879216,47.43457755500708
88.101,88.101,133.30426847175409,173.4886543560664,47.64192074280249
88.1078,88.1078,134.8185043111342,173.55261466043675,47.98974075085662
88.1145,88.1145,136.35365864270165,173.58499281454934,48.43338496276668
88.1213,88.1213,137.69857985670302,173.69106705512507,48.92234372782838
88.128,88.128,138.71901477067647,173.8585467763753,49.40685914511692
88.1348,88.1348,139.36084376717028,174.07958602761929,49.8440432743547
88.1415,88.1415,139.64065443862788,174.34561181824301,50.20333686122596
88.1483,88.1483,139.65321015623095,174.64398801041867,50.47023935736711
88.155,88.155,139.85662979783862,174.9561068378927,50.64690151582251
88.1618,88.1618,140.1392769424007,175.2567217222003,50.7492242762791
88.1685,88.1685,140.39850854688484,175.5140855899451,50.80204870900977
88.1753,88.1753,140.55179092865282,175.6889115571418,50.8350782157464
88.182,88.182,140.5661928842516,175.72974780477168,50.880447382542826
88.1888,88.1888,140.791376175986,175.89143704243605,50.96936468972019
88.1955,88.1955,141.2475068553315,176.33338193676354,51.12528361175306
88.2023,88.2023,141.9227333644862,177.11292141826354,51.35593874419312
88.209,88.209,142.76856936297736,178.23060466042028,51.64923681818333
88.2158,88.2158,143.70668754711042,179.61409170508514,51.975619450156984
88.2225,88.2225,144.64648301266934,181.1317667214072,52.295893581380255
88.2293,88.2293,145.5055554541739,182.6237916870108,52.57088026749198
88.236,88.236,146.22442616842545,183.934707443693,52.76953980487507
88.2428,88.2428,146.7719413417626,184.93925607711105,52.87443323320702
88.2495,88.2495,147.14353765830785,185.5596785366146,52.88417773704885
88.2563,88.2563,147.35620833418216,185.77421567151166,52.955770498630805
88.263,88.263,147.4420674916808,185.9324290176164,53.0836460936603
88.2698,88.2698,147.44285116284752,186.38546238223378,53.237504113113616
88.2765,88.2765,147.48884577420677,187.02676451325087,53.3881045334797
88.2833,88.2833,147.5432669315934,187.73964307152616,53.51218226667566
88.29,88.29,147.5783580647658,188.41465331176047,53.595082330242406
88.2968,88.2968,147.5793649387465,188.96345386207642,53.63127263065365
88.3035,88.3035,147.6226834469618,189.32821199407746,53.639091140116534
88.3103,88.3103,147.7056996852767,189.48684699928305,53.68173759742647
88.317,88.317,147.81909156468566,189.52000679840694,53.745974896044956
88.3238,88.3238,147.94912421979066,189.69992959549265,53.817371314345564
88.3305,88.3305,148.08010304134058,189.9632693306547,53.88316026906372
88.3373,88.3373,148.19701390513438,190.24404979930785,53.93461921564934
88.344,88.344,148.28842936329528,190.48745675484474,53.9685990958429
88.3508,88.3508,148.34961813804918,190.6583822008099,53.98834592872034
88.3575,88.3575,148.3849070836119,190.74425837069427,54.00400694974904
88.3643,88.3643,148.4062083332984,190.752926713655,54.031701151591804
88.371,88.371,148.42497932361633,190.79894671265652,54.08924444780028
88.3778,88.3778,148.4406366653874,190.86928450422693,54.18966975369894
88.3845,88.3845,148.44793765959432,190.9313484340821,54.33651877249645
88.3913,88.3913,148.51405843270112,190.9544200975786,54.52337306812905
88.398,88.398,148.67765145756937,190.99538196831568,54.73672317463655
88.4048,88.4048,148.9640781389814,191.1154135593402,54.95965179868643
88.4115,88.4115,149.3750869949426,191.3156089949401,55.17475751631159
88.4183,88.4183,149.88795455852005,191.5814014764611,55.3663927869517
88.425,88.425,150.46168176306213,191.8842640365952,55.5226440574207
88.4318,88.4318,151.0453967546479,192.18647261679217,55.636891931325366
88.4385,88.4385,151.5855461216234,192.4472113254547,55.70840054202213
88.4453,88.4453,152.03117806282924,192.62824820430743,55.741591129155786
88.452,88.452,152.337870365913,192.69827060416642,55.74427137853209
88.4588,88.4588,152.4704245323899,192.7609907174815,55.76305130645321
88.4655,88.4655,152.53661874009853,192.9677697101658,55.79510139610295
88.4723,88.4723,152.815269048953,193.32049779475463,55.83499151455161
88.479,88.479,153.30965548002666,193.814079110159,55.88126729559858
88.4858,88.4858,154.01394108871804,194.43949234710743,55.93638405426021
88.4925,88.4925,154.9152243452217,195.1863909565581,56.00541558536753
88.4993,88.4993,155.99572930412967,196.04456739821282,56.094306997721155
88.506,88.506,157.23426382257475,197.0041108638298,56.20845745907914
88.5128,88.5128,158.60636131880432,198.0542914208177,56.35187985760996
88.5195,88.5195,160.08292769720126,199.1820203865355,56.52681307672243
88.5263,88.5263,161.62452796943262,200.37205734935185,56.73374764068618
88.533,88.533,163.16471584061125,201.6085114008997,56.97207167072617
88.5398,88.5398,164.57609231692817,202.8719425424875,57.24383836641451
88.5465,88.5465,165.63142305729306,204.12795831835552,57.56283741126283
88.5533,88.5533,166.01925337466153,205.31022647216662,57.95821569678015
88.56,88.56,166.57629232267647,206.31315270490822,58.45763530204477
88.5668,88.5668,168.16960468264475,207.01820276589086,59.06135009668438
88.5735,88.5735,170.6447645297658,207.34902577054464,59.7346590357119
88.5803,88.5803,173.66318681025786,207.38761873304043,60.422154096493436
88.587,88.587,176.81437190656163,207.71587089014136,61.06495403339643
88.5938,88.5938,179.71198846740143,208.2143601814884,61.61029876474637
88.6005,88.6005,182.05727277476694,208.7612650961616,62.01672730713888
88.6073,88.6073,183.6726219699244,209.2587743566508,62.258167395426106
88.614,88.614,184.50651923434106,209.645787567291,62.3262075928931
88.6208,88.6208,184.6159269068404,209.89894178841814,62.422626297453796
88.6275,88.6275,185.09596911853637,210.02666562978817,62.65980982375502
88.6343,88.6343,185.98776226014985,210.0602355182854,63.00341459675208
88.641,88.641,187.1044147008013,210.07634079341838,63.41318230838759
88.6478,88.6478,188.27570417436314,210.09341421117267,63.84778621932773
88.6545,88.6545,189.36444494164067,210.12082656362782,64.26953434330409
88.6613,88.6613,190.2750903400691,210.23033575444538,64.64907711802053
88.668,88.668,190.95776105426847,210.45231690303035,64.97062962966967
88.6748,88.6748,191.40854369758088,210.81594197967868,65.23573085754157
88.6815,88.6815,191.6643555318131,211.35544480933905,65.46048723153963
88.6883,88.6883,191.79284237679275,212.10643341455983,65.66585741602294
88.695,88.695,191.87852751196394,213.08698702195997,65.86758646167466
88.7018,88.7018,192.00445570829208,214.2754529973143,66.07096882360523
88.7085,88.7085,192.23232955688115,215.60391680919182,66.27097779443919
88.7153,88.7153,192.58878621207603,216.97102858700836,66.45583698561971
88.722,88.722,193.06231803020066,218.2636274062074,66.61088179246816
88.7288,88.7288,193.6096251836575,219.37803396882026,66.72166935797023
88.7355,88.7355,194.168277497516,220.23684450355992,66.77739733158658
88.7423,88.7423,194.6726212852793,220.7987218172634,66.78070244192804
88.749,88.749,195.06911176162666,221.060532935643,66.83882288177209
88.7558,88.7558,195.32683609782796,221.06783765451485,66.94018573208122
88.7625,88.7625,195.44064310101083,221.28739701185066,67.06824953847169
88.7693,88.7693,195.4539681516445,221.64653008867728,67.20449646145562
88.776,88.776,195.56320012262518,222.06706440799928,67.33113932885733
88.7828,88.7828,195.72970474293973,222.47485860731098,67.43312688303102
88.7895,88.7895,195.91239403735673,222.80805274935364,67.49956276179775
88.7963,88.7963,196.07210641530475,223.0232001450826,67.52469029234075
88.803,88.803,196.1764327937006,223.09767767939672,67.54116805141928
88.8098,88.8098,196.20371492327078,223.16752424183255,67.59468468131172
88.8165,88.8165,196.26262240555428,223.37081246025357,67.67706567743325
88.8233,88.8233,196.4048253273447,223.68683320073725,67.77793970663197
88.83,88.83,196.61742532730514,224.08900443077002,67.88609594414893
88.8368,88.8368,196.8806215324669,224.54818139009325,67.99085980348082
88.8435,88.8435,197.17144382105096,225.0354136460434,68.08349435646096
88.8503,88.8503,197.46727192590603,225.5237996498074,68.15840017412414
88.857,88.857,197.7482113709434,225.98921431428585,68.21375373237227
88.8638,88.8638,197.99832312102382,226.41025108353546,68.25136761002584
88.8705,88.8705,198.2060745015723,226.76783411142353,68.27587510077026
88.8773,88.8773,198.36261342778914,227.04468357787374,68.29341476950087
88.884,88.884,198.45624182089136,227.22533862649877,68.30991825900873
88.8908,88.8908,198.46693141292147,227.29817113140146,68.32953521735071
88.8975,88.8975,198.56467884822874,227.33690134792116,68.35416382114133
88.9043,88.9043,198.7880879704074,227.47967189782017,68.38429439959388
88.911,88.911,199.12964851536444,227.70830566306327,68.42010908638377
88.9178,88.9178,199.54945482883664,227.99913564618367,68.46165288685647
88.9245,88.9245,199.98047367739096,228.32977175714018,68.5079152102258
88.9313,88.9313,200.34120872098586,228.6837671367637,68.5557132308018
88.938,88.938,200.5488712090072,229.05213640090722,68.59934189401696
88.9448,88.9448,200.56668612076373,229.4330940502359,68.63119185105218
88.9515,88.9515,200.86161355593063,229.8311396489427,68.643100461538
88.9583,88.9583,201.45661205693116,230.25542900602082,68.65809820805916
88.965,88.965,202.34284477525745,230.7171713374369,68.70429113097057
88.9718,88.9718,203.48266080918359,231.22626989203192,68.78267636873122
88.9785,88.9785,204.8174620769275,231.7877020313222,68.8911202053104
88.9853,88.9853,206.27725429605442,232.3981443791975,69.02485895097028
88.992,88.992,207.7887062107124,233.04337128717052,69.17708047270948
88.9988,88.9988,209.28016134103524,233.6967915956945,69.33990245437583
89.0055,89.0055,210.6827999821664,234.3189170216298,69.50507244699709
89.0123,89.0123,211.91702456948548,234.8469565777372,69.66718271971841
89.019,89.019,212.85322306071274,235.1663073940018,69.8363244172556
89.0258,89.0258,213.2844518923781,235.22301885579841,70.04780462789402
89.0325,89.0325,213.6012961611147,235.79967431209516,70.34845474361492
89.0393,89.0393,214.85048330815502,236.916698208436,70.770579986353
89.046,89.046,217.06949847692945,238.43788927926352,71.31368774553702
89.0528,89.0528,220.10489099271857,240.1153215407019,71.93808436314362
89.0595,89.0595,223.6267543989462,241.66747574298924,72.57331639590458
89.0663,89.0663,227.2010810868187,242.8498916171439,73.139067581738
89.073,89.073,230.39333777920322,243.499413193881,73.56696112175214
89.0798,89.0798,232.8625920473634,243.55169543605174,73.8151591249035
89.0865,89.0865,234.41775076224914,244.06432291475608,73.87363798586827
89.0933,89.0933,235.03050172175676,245.02917404775877,73.98614051931328
89.1,89.1,235.24735052303456,246.28059505325268,74.23030617182718
89.1068,89.1068,236.08296665716549,247.63364769631676,74.55615387110302
89.1135,89.1135,237.2797021701463,248.91640227404662,74.91256202512233
89.1203,89.1203,238.58175895286868,249.9937385410022,75.25507554231106
89.127,89.127,239.7740028330724,250.77962992042853,75.5510909377752
89.1338,89.1338,240.70619399617254,251.23923795375256,75.78223567168511
89.1405,89.1405,241.30093552670587,251.38427023778505,75.94444554520761
89.1473,89.1473,241.546977048847,251.5041440019643,76.04630631726309
89.154,89.154,241.61212457256096,251.8127448272984,76.10590176552941
89.1608,89.1608,241.92462228104742,252.2209010030547,76.14633686916198
89.1675,89.1675,242.4154041851131,252.6399052580113,76.1904717926271
89.1743,89.1743,243.02492315688102,252.99219753783913,76.25587692184729
89.181,89.181,243.70968823342005,253.21779548198094,76.35114913200267
89.1878,89.1878,244.44228258603127,253.27704567808175,76.47433860231725
89.1945,89.1945,245.20822059676408,253.40283316980387,76.61358423098996
89.2013,89.2013,246.0019185323171,253.71230502627552,76.74958159779527
89.208,89.208,246.8225712227202,254.18704496740708,76.85944557243829
89.2148,89.2148,247.67062519519664,254.7963557338979,76.9215831893237
89.2215,89.2215,248.54572807008074,255.50241307015074,76.92244703832088
89.2283,89.2283,249.44612721276286,256.2648624671388,76.99167276290113
89.235,89.235,250.368186660186,257.04515326716177,77.12392118152077
89.2418,89.2418,251.30498201937914,257.8107049510066,77.30529536375039
89.2485,89.2485,252.24447179593304,258.53788493043686,77.5172466688143
89.2553,89.2553,253.16853137549091,259.2126387949785,77.74054392316988
89.262,89.262,254.0542698734248,259.8287923123083,77.9579678384082
89.2688,89.2688,254.8778327552446,260.38541469916277,78.15542510220055
89.2755,89.2755,255.61792263338577,260.8846020347269,78.32204624589548
89.2823,89.2823,256.2570592578851,261.3297942372089,78.44993166845555
89.289,89.289,256.7826524299289,261.7242757582264,78.53389145801896
89.2958,89.2958,257.18908752376524,262.06978730186313,78.57126837754294
89.3025,89.3025,257.4787808005668,262.36512294072946,78.58080589190587
89.3093,89.3093,257.6606905992488,262.6048171586404,78.63576437128117
89.316,89.316,257.74686858075466,262.7785961505715,78.73373644743428
89.3228,89.3228,257.7487917660676,262.872239190914,78.87239085038495
89.3295,89.3295,257.8223886296901,262.8746302096368,79.04994295471634
89.3363,89.3363,257.96553640359457,262.9875882419851,79.26478564589715
89.343,89.343,258.173189631851,263.22158434023055,79.51483180209529
89.3498,89.3498,258.43383491741565,263.58278443700056,79.79764751194767
89.3565,89.3565,258.7136251817235,264.0763136013985,80.11122936125085
89.3633,89.3633,258.95544003517773,264.70909338926054,80.45398769164636
89.37,89.37,259.12263294045493,265.4866893268639,80.82292571435946
89.3768,89.3768,259.25645590732137,266.4036623370177,81.20997573506475
89.3835,89.3835,259.48198439148234,267.433638675528,81.59885294958903
89.3903,89.3903,259.9555475527373,268.52844452429383,81.96725079113668
89.397,89.397,260.79968012123885,269.62833756480245,82.29525471546927
89.4038,89.4038,262.0606285097822,270.67465069743815,82.57333480151561
89.4105,89.4105,263.6973890651094,271.61747402587883,82.80343209697592
89.4173,89.4173,265.5982963614834,272.4190436004015,82.9939253642637
89.424,89.424,267.6134934425521,273.0554050172581,83.15345728708368
89.4308,89.4308,269.5893006557836,273.5165683264578,83.28711674398028
89.4375,89.4375,271.39522681086106,273.80487594652675,83.39576207944005
89.4443,89.4443,272.9405320918008,273.93202964177135,83.47773452698763
89.451,89.451,274.18078929382807,273.9488282049452,83.53145897202305
89.4578,89.4578,275.1159669523551,274.09116859424176,83.55727059900586
89.4645,89.4645,275.7812980017904,274.343059257709,83.5575865308881
89.4713,89.4713,276.2322872282315,274.6924593490062,83.57927565043886
89.478,89.478,276.52742833027446,275.13023460579655,83.6193517078812
89.4848,89.4848,276.7147438666391,275.64756516282347,83.67409117788293
89.4915,89.4915,276.8264810587383,276.2335114767757,83.73886442531105
89.4983,89.4983,276.8810183028212,276.87395449098784,83.80739766973451
89.505,89.505,276.88816119887724,277.55212412772903,83.87202092065864
89.5118,89.5118,276.9214154117695,278.2502775770142,83.92504681967917
89.5185,89.5185,276.98612109171887,278.95187247304136,83.96062664558241
89.5253,89.5253,277.06854319022665,279.64354239340645,83.97629517234829
89.532,89.532,277.1496045110093,280.31634895042384,83.97887643390553
89.5388,89.5388,277.2062921239027,280.96608325698696,83.99417635244991
89.5455,89.5455,277.21440475677053,281.59272436461896,84.01401013390998
89.5523,89.5523,277.2767746138512,282.1993855324961,84.02946067963427
89.559,89.559,277.4258491319102,282.7911395361661,84.03303891901554
89.5658,89.5658,277.669859716973,283.3740819307222,84.04577561879002
89.5725,89.5725,278.0083445021404,283.95471838941717,84.07585847872714
89.5793,89.5793,278.4329450967015,284.5394056931927,84.12171653615385
89.586,89.586,278.92936367743965,285.133626459451,84.18040499314966
89.5928,89.5928,279.4797935017843,285.741238292916,84.24847529634557
89.5995,89.5995,280.0648937747914,286.36396538168214,84.32212993558088
89.6063,89.6063,280.6649306589168,287.001233139899,84.39696324596711
89.613,89.613,281.26043809621865,287.65029804359085,84.46788935763526
89.6198,89.6198,281.8329287115792,288.3065711452195,84.52951413956947
89.6265,89.6265,282.36600938079175,288.96401554184774,84.57680885900929
89.6333,89.6333,282.8468419685597,289.61553518664226,84.60584493970711
89.64,89.64,283.26737465093146,290.25336090165797,84.6143889028058
89.6468,89.6468,283.62472796903535,290.8695067912925,84.62657548625364
89.6535,89.6535,283.9206011727396,291.4563245208321,84.65781946478921
89.6603,89.6603,284.1600334824896,292.007025681191,84.7049868456963
89.667,89.667,284.34998960964134,292.5159386658615,84.76415632690758
89.6738,89.6738,284.49804714646,292.97838139626384,84.83125082755633
89.6805,89.6805,284.6112281983524,293.3902433095645,84.90237902120214
89.6873,89.6873,284.694980957724,293.7474118531544,84.97387442527892
89.694,89.694,284.75236101475673,294.04511029054544,85.04228704117739
89.7008,89.7008,284.78352551480697,294.27725173569206,85.10460155765655
89.7075,89.7075,284.7857635541127,294.4359960600512,85.15871558640313
89.7143,89.7143,284.81749839280377,294.5114704922061,85.2040904633561
89.721,89.721,284.8903864617018,294.5354348723293,85.24214808882319
89.7278,89.7278,285.0283590779776,294.69272018260835,85.2726535407326
89.7345,89.7345,285.31978574451676,295.03954715765235,85.28126155602371
89.7413,89.7413,285.9555780574033,295.6375460575672,85.3345620832386
89.748,89.748,287.1837681666143,296.52602098589875,85.50551750866197
89.7548,89.7548,289.19857510370184,297.7016688421766,85.83614882825746
89.7615,89.7615,292.047717691887,299.1119137028058,86.33048349134553
89.7683,89.7683,295.59923383979594,300.66030853234514,86.94888509972152
89.775,89.775,299.5640750663255,302.22104107786714,87.61794524387182
89.7818,89.7818,303.56010925336045,303.66169526549356,88.25010068399612
89.7885,89.7885,307.1966151895473,304.8700355341357,88.76568653599399
89.7953,89.7953,310.1525757464077,305.7746579203831,89.1094114202719
89.802,89.802,312.2269082825248,306.3534613076644,89.2572568760512
89.8088,89.8088,313.3534649647028,306.6312295573577,89.29959949691253
89.8155,89.8155,313.5866654555497,306.66912209971974,89.50315765885476
89.8223,89.8223,314.10443806828624,306.7891413279347,89.82358221862947
89.829,89.829,315.1827042754723,306.98109370874806,90.2087016228257
89.8358,89.8358,316.62100971189005,307.16973517041487,90.60540463577874
89.8425,89.8425,318.23813989003514,307.3009329064194,90.96584054224016
89.8493,89.8493,319.8881426826072,307.34631669178634,91.25256718154702
89.856,89.856,321.46408023864274,307.3902801994208,91.44212393099187
89.8628,89.8628,322.89437816036616,307.5071776665191,91.52654772432643
89.8695,89.8695,324.13654311653886,307.6673057206783,91.54054001141725
89.8763,89.8763,325.17117230727877,307.8344213401416,91.63453173423
89.883,89.883,325.9974813783159,307.9717416062868,91.78275883146677
89.8898,89.8898,326.63024859188226,308.0468999057503,91.95673027846546
89.8965,89.8965,327.0972915652289,308.0579067056939,92.12933094457185
89.9033,89.9033,327.43641494003907,308.16782937918657,92.27806276287549
89.91,89.91,327.69118803081267,308.37677893707837,92.38722587177439
89.9168,89.9168,327.9057433039869,308.6728433729397,92.44885656327553
89.9235,89.9235,328.11958179728896,309.03478168148354,92.4623770209092
89.9303,89.9303,328.3634532327722,309.4363168129894,92.49153638106833
89.937,89.937,328.6569206780363,309.8510335648307,92.55389462324898
89.9438,89.9438,329.0080687317005,310.25661936505566,92.63807627807553
89.9505,89.9505,329.41548623123083,310.63745456076197,92.7328394300758
89.9573,89.9573,329.8715908525992,310.98523831538375,92.82864265081528
89.964,89.964,330.36579606935254,311.29801805565427,92.91852569014935
89.9708,89.9708,330.8866752470192,311.5783254422713,92.99827884126466
89.9775,89.9775,331.4230978747042,311.83110819930846,93.06602796384297
89.9843,89.9843,331.9646735408468,312.0619345771078,93.12142678781706
89.991,89.991,332.50200834948043,312.2755952224448,93.16470970495443
89.9978,89.9978,333.0271830312245,312.47499645341674,93.19595106904184
90.0045,90.0045,333.53437675338955,312.66030852777686,93.21483522807287
90.0113,90.0113,334.020135835367,312.82846750816697,93.22096956748308
90.018,90.018,334.48294172015375,312.97312465406145,93.22747290113905
90.0248,90.0248,334.9222206697871,313.08503402144373,93.24551994761464
90.0315,90.0315,335.33715130561137,313.1527774274161,93.27289697492427
90.0383,90.0383,335.7256066015345,313.1636916238964,93.30648976857148
90.045,90.045,336.08354929800083,313.22253645893494,93.34272668030424
90.0518,90.0518,336.40508187838276,313.3633908772662,93.37805457904994
90.0585,90.0585,336.6831543132955,313.59691475783836,93.40930045079274
90.0653,90.0653,336.91071261629446,313.93153862988584,93.43386885963585
90.072,90.072,337.08186677655766,314.37351527314405,93.44979458503995
90.0788,90.0788,337.19264385179355,314.92765847363404,93.45571101252958
90.0855,90.0855,337.24443914623384,315.60102441020996,93.46457387946185
90.0923,90.0923,337.25142866237735,316.42098882224866,93.50368241960535
90.099,90.099,337.36659862731494,317.4669631908183,93.59213393672731
90.1058,90.1058,337.7400232602491,318.8670367327421,93.731295451864
90.1125,90.1125,338.58275920373706,320.72131367317303,93.89677488067429
90.1193,90.1193,340.0516260306386,323.0076120478857,94.04775556319163
90.126,90.126,342.1547286709281,325.55358979207307,94.13953107464789
90.1328,90.1328,344.722395070743,328.0864595629767,94.14323144857347
90.1395,90.1395,347.44275213001083,330.3158154580145,94.26118393795696
90.1463,90.1463,349.94409866654405,332.00841953692594,94.49079622969687
90.153,90.153,351.88955221699075,333.0361727828899,94.80806849825971
90.1598,90.1598,353.0513516531128,333.3933763570994,95.17224242302277
90.1665,90.1665,353.34782674916477,333.6011564303119,95.53433021870973
90.1733,90.1733,353.85370358791033,334.19135215068286,95.84646069319803
90.18,90.18,354.98563796767286,334.9525995829104,96.06994388291464
90.1868,90.1868,356.50290468157596,335.69263794639585,96.18072247963872
90.1935,90.1935,358.15320559059836,336.27198789508236,96.19013009766182
90.2003,90.2003,359.7175656875551,336.6174741199935,96.31179935709801
90.207,90.207,361.0397974365885,336.718307078363,96.52541905537636
90.2138,90.2138,362.037952722888,336.8253093368754,96.80211952121412
90.2205,90.2205,362.69944959501584,337.0749400285858,97.108529038908
90.2273,90.2273,363.06481655344123,337.3923889937613,97.41082586069041
90.234,90.234,363.20646611036716,337.7084775110256,97.67863914376875
90.2408,90.2408,363.20829016943355,337.9699357185007,97.88846118519233
90.2475,90.2475,363.2668415401479,338.144462239369,98.0261650018392
90.2543,90.2543,363.32097450106016,338.2210271189134,98.08825332924029
90.261,90.261,363.3254515976605,338.23542641198895,98.09500194500819
90.2678,90.2678,363.395747747309,338.32092151242324,98.15551093980551
90.2745,90.2745,363.54843529883135,338.4504264496254,98.2495977298125
90.2813,90.2813,363.77812698434417,338.5949481074316,98.35581133249639
90.288,90.288,364.0714999626133,338.72817001862853,98.455320839335
90.2948,90.2948,364.4118376098765,338.8300167172232,98.53513204534833
90.3015,90.3015,364.7822560528942,338.8888594084291,98.58987031359544
90.3083,90.3083,365.16745127568936,338.90212130174643,98.62163990919115
90.315,90.315,365.5545271733103,338.9289544949841,98.63799032252022
90.3218,90.3218,365.93380963858635,338.98464243563603,98.64865382073884
90.3285,90.3285,366.3002620321746,339.0553359137776,98.66216903929752
90.3353,90.3353,366.65523951457124,339.12790348842185,98.68341193841162
90.342,90.342,367.0076261734292,339.1926882049853,98.71258129257707
90.3488,90.3488,367.3736179815602,339.2451115561085,98.74573539657918
90.3555,90.3555,367.77509334096214,339.2859143618435,98.77668389238536
90.3623,90.3623,368.23690754363247,339.320164270417,98.79973087682973
90.369,90.369,368.78359074225773,339.3553466627535,98.81240500480924
90.3758,90.3758,369.4362910262705,339.39895946581345,98.81728715072774
90.3825,90.3825,370.21088211033174,339.45600168168943,98.82228008055145
90.3893,90.3893,371.1168934200619,339.5264163085654,98.83909867090973
90.396,90.396,372.1553214073665,339.6014801420437,98.87769373114777
90.4028,90.4028,373.29668623880417,339.6595586843545,98.93967520653453
90.4095,90.4095,374.42060288019053,339.6678701248036,99.0254353962021
90.4163,90.4163,375.2801249191405,339.740207401136,99.14818353712457
90.423,90.423,375.5812727734681,339.90519289752984,99.32679899515492
90.4298,90.4298,376.0315325467452,340.1474460563517,99.5630179932772
90.4365,90.4365,377.23555999415476,340.4292007268545,99.83084240255782
90.4433,90.4433,379.01895658891965,340.7049564405199,100.08420122611803
90.45,90.45,381.10861514238445,340.93767538009877,100.27302621595618
90.4568,90.4568,383.2189129811194,341.1095108735467,100.35833186717521
90.4635,90.4635,385.1130975066235,341.2238756500439,100.39521835213299
90.4703,90.4703,386.6343805253856,341.2999587401935,100.55021047303597
90.477,90.477,387.7122536060002,341.3636232303846,100.80021800426825
90.4838,90.4838,388.35161482666234,341.43843529225273,101.11085383852135
90.4905,90.4905,388.61340415325947,341.5391986953766,101.44451460203523
90.4973,90.4973,388.63370566532944,341.66934583945584,101.76626045846058
90.504,90.504,388.8272317544431,341.8222454395244,102.04734747313013
90.5108,90.5108,389.0908997766021,341.98505769361714,102.2675622057777
90.5175,90.5175,389.3421088556804,342.1434137906021,102.41682650922664
90.5243,90.5243,389.5270232233771,342.28573741609154,102.49550202669592
90.531,90.531,389.6220833223112,342.4063887293535,102.51288906020154
90.5378,90.5378,389.6297432976564,342.5069596985674,102.54160568209852
90.5445,90.5445,389.68899721835976,342.59546745816624,102.59912595218195
90.5513,90.5513,389.7857978765481,342.68389758049653,102.66956320514898
90.558,90.558,389.8900482215487,342.78506092247954,102.74101046437256
90.5648,90.5648,389.97671772932665,342.909689083578,102.8067785957607
90.5715,90.5715,390.02873463899067,343.06433790518696,102.86528260207847
90.5783,90.5783,390.03708530267596,343.2503139472813,102.91883569836848
90.585,90.585,390.0753757911305,343.4636035759844,102.97177755686842
90.5918,90.5918,390.16020054619474,343.69570655053656,103.0284215249054
90.5985,90.5985,390.2909209410389,343.93518947263914,103.09133821455484
90.6053,90.6053,390.46754177655436,344.1696015735493,103.16044063173743
90.612,90.612,390.6903168608225,344.3873443475086,103.23308208401905
90.6188,90.6188,390.9584993066924,344.5792140439436,103.30497691221042
90.6255,90.6255,391.2694521276238,344.7394651969095,103.3713795550924
90.6323,90.6323,391.61889676660627,344.8663118083737,103.42792401161032
90.639,90.639,392.00203017530623,344.9618294464368,103.47098184732259
90.6458,90.6458,392.41464042409103,345.03124026136805,103.49785668175264
90.6525,90.6525,392.8536977795482,345.0816487232045,103.5071390505791
90.6593,90.6593,393.31763275576384,345.1205256958403,103.51502003711691
90.666,90.666,393.8067311548147,345.15440068968644,103.53732603083505
90.6728,90.6728,394.3236207813317,345.1881431117558,103.56904579158667
90.6795,90.6795,394.8734353609249,345.2250901937876,103.60359656426589
90.6863,90.6863,395.46233419974493,345.2682581226895,103.63389980540111
90.693,90.693,396.09144027032465,345.32260435039433,103.65368089811896
90.6998,90.6998,396.74467137571605,345.397388894515,103.65920566251887
90.7065,90.7065,397.37440871576916,345.5065612925667,103.66741305359054
90.7133,90.7133,397.89218274750954,345.66535645161105,103.68456949088976
90.72,90.72,398.172394962062,345.88327300965324,103.70455850091426
90.7268,90.7268,398.26549947775845,346.15571240598376,103.72360969612241
90.7335,90.7335,398.8281026791019,346.4585161795126,103.74072220922716
90.7403,90.7403,399.8695550766807,346.75023010194474,103.75489550970339
90.747,90.747,401.29772612546685,346.98322518073087,103.76320989131472
90.7538,90.7538,402.9435094402068,347.11922005715917,103.76479906418243
90.7605,90.7605,404.60793114983943,347.14241985095845,103.77967882731085
90.7673,90.7673,406.10984607374724,347.2197190303879,103.80959638912736
90.774,90.774,407.3196220630843,347.36059385743647,103.85461866144718
90.7808,90.7808,408.17408270646285,347.51397016856725,103.91347195765637
90.7875,90.7875,408.6745892454859,347.62814697815696,103.98381147276329
90.7943,90.7943,408.87351384177373,347.6631597678842,104.0622120215897
90.801,90.801,408.8918285434445,347.7277488649423,104.14408192129066
90.8078,90.8078,409.03092167059475,347.8910567347199,104.2238985783978
90.8145,90.8145,409.2000957385076,348.13421426481074,104.29585395796045
90.8213,90.8213,409.32840302004445,348.42687934641134,104.35467328982143
90.828,90.828,409.3731054108428,348.73498519518756,104.39637160615494
90.8348,90.8348,409.42451497290847,349.0279927316713,104.41881291345388
90.8415,90.8415,409.55837930390254,349.28415026448795,104.4219742829114
90.8483,90.8483,409.7432938061514,349.492842402091,104.43603247811308
90.855,90.855,409.9402275424367,349.65406406019395,104.46340286200179
90.8618,90.8618,410.1117319778031,349.77588859628577,104.49877576016416
90.8685,90.8685,410.2285045632022,349.871033473345,104.53617080745333
90.8753,90.8753,410.2727170202629,349.9533774244711,104.56989883269502
90.882,90.882,410.3071095502176,350.0349801018899,104.59550652279381
90.8888,90.8888,410.41635088742913,350.12399753540956,104.6104434278722
90.8955,90.8955,410.58995088684094,350.2237645291255,104.61433203389754
90.9023,90.9023,410.81354002034516,350.33306791530134,104.61981902745465
90.909,90.909,411.0708729327952,350.44734885846634,104.6314000015476
90.9158,90.9158,411.34527290347626,350.560418844164,104.64479161015791
90.9225,90.9225,411.62114169751123,350.66622840996223,104.65529192393353
90.9293,90.9293,411.8856684489641,350.76023447627654,104.65821026988759
90.936,90.936,412.13031575025906,350.84003682373157,104.66734422892151
90.9428,90.9428,412.3516571852592,350.90522176784924,104.69277664681867
90.9495,90.9495,412.5514333241423,350.95662992932773,104.73850218901565
90.9563,90.9563,412.73594097672844,350.99542994445716,104.80790322801704
90.963,90.963,412.9149837741229,351.02238409458306,104.90303479796921
90.9698,90.9698,413.1005074020875,351.0375337526557,105.02388218619933
90.9765,90.9765,413.30493976987174,351.0403228154444,105.16796017271112
90.9833,90.9833,413.5395655399009,351.05063159506864,105.33040997661763
90.99,90.99,413.81370088035385,351.0744770093339,105.5045660263629
90.9968,90.9968,414.13530838852284,351.11165666207074,105.68295311830481
91.0035,91.0035,414.5130582624796,351.16123818764464,105.85866900550909
91.0103,91.0103,414.9591962140793,351.22173631247335,106.02687125959208
91.017,91.017,415.4921492049234,351.2913875313896,106.18578563667691
91.0238,91.0238,416.1376064625979,351.3680112241093,106.33687585855965
91.0305,91.0305,416.9267189269196,351.4474855155975,106.48373614624073
91.0373,91.0373,417.8721015981191,351.51854235986167,106.63159161638116
91.044,91.044,418.89385676661607,351.5548189610576,106.7909423222377
91.0508,91.0508,419.75257825063346,351.59308164310846,106.97817097792078
91.0575,91.0575,420.1074511333706,351.7382133125313,107.20290230031173
91.0643,91.0643,420.5280651501089,351.99008130319606,107.45142695865421
91.071,91.071,421.78904412059836,352.31033845387657,107.68346666847201
91.0778,91.0778,423.7318249915466,352.63952361357286,107.84585740078258
91.0845,91.0845,426.05228943700615,352.9219852045221,107.8933599337274
91.0913,91.0913,428.4076259357592,353.1237847144093,107.98321187724514
91.098,91.098,430.50222830551803,353.23823309919146,108.2070331732742
91.1048,91.1048,432.1340034415558,353.28129918084903,108.54124709810264
91.1115,91.1115,433.20686371779016,353.28219891522474,108.9505672262338
91.1183,91.1183,433.721230851655,353.29136777067185,109.39479153170433
91.125,91.125,433.75171621075253,353.29771557684387,109.83309837548526
91.1318,91.1318,434.0838420443674,353.33249979299046,110.22802895431467
91.1385,91.1385,434.63788505590543,353.3949371832793,110.55040507588723
91.1453,91.1453,435.2777659832408,353.4741309581834,110.7835790232731
91.152,91.152,435.890875475443,353.55476746734433,110.92479992175672
91.1588,91.1588,436.39971665279984,353.62231258826944,110.98321611920198
91.1655,91.1655,436.76515897460405,353.6664202287949,110.99066956645648
91.1723,91.1723,436.9822381070259,353.6824162537334,111.04374380236185
91.179,91.179,437.0713219449022,353.6936642359184,111.12248619479303
91.1858,91.1858,437.0748734321065,353.726921146688,111.20961317654516
91.1925,91.1925,437.13032963589177,353.7741868945467,111.29184062186785
91.1993,91.1993,437.19934839366806,353.82636556513694,111.36039328607349
91.206,91.206,437.25146078457357,353.8747951698763,111.41069795564529
91.2128,91.2128,437.26718905911946,353.9124173850682,111.44136519181303
91.2195,91.2195,437.2955120599863,353.9344337981572,111.4529158375493
91.2263,91.2263,437.3649616372039,353.9385028376379,111.45902750175787
91.233,91.233,437.46483405406815,353.95230563027934,111.48083773531985
91.2398,91.2398,437.580382120071,353.98160995895665,111.51589193690309
91.2465,91.2465,437.6965635666497,354.0220539646722,111.56124664371616
91.2533,91.2533,437.80092261003864,354.06800342125644,111.61379778695975
91.26,91.26,437.88517471025705,354.1137060713006,111.67094340566518
91.2668,91.2668,437.94566255807337,354.15450874343026,111.73123049253255
91.2735,91.2735,437.98310435307457,354.1876500712901,111.79458224909538
91.2803,91.2803,438.0018635992711,354.21241469126204,111.86197830582319
91.287,91.287,438.0087537272927,354.22979241457193,111.93479410979607
91.2938,91.2938,438.0114615005639,354.2419286566539,112.01411176244065
91.3005,91.3005,438.01695710963537,354.25152724317,112.10019226675428
91.3073,91.3073,438.03044771990017,354.2612060325797,112.19214877833544
91.314,91.314,438.05514484226774,354.2728518596243,112.28782387110935
91.3208,91.3208,438.09260810198793,354.28716936912116,112.38390780759106
91.3275,91.3275,438.14316462892714,354.3036555177165,112.47633148355354
91.3343,91.3343,438.20599730093755,354.3210035662187,112.56085551084233
91.341,91.341,438.27891498524906,354.33760542812536,112.63361538149827
91.3478,91.3478,438.35823614850807,354.3517558174264,112.69135213304291
91.3545,91.3545,438.4396057977537,354.36139005826556,112.73123538351365
91.3613,91.3613,438.51965530539917,354.3638859521617,112.75072571522557
91.368,91.368,438.5967574733134,354.3711775459142,112.75327895056529
91.3748,91.3748,438.670303340071,354.3901873304592,112.77743356471352
91.3815,91.3815,438.7397840652617,354.4219172331405,112.8197204018401
91.3883,91.3883,438.80437456628573,354.4665757837777,112.87361069485513
91.395,91.395,438.8630177376591,354.5236865299705,112.93047026664439
91.4018,91.4018,438.91479490666427,354.5919995804091,112.98123660659739
91.4085,91.4085,438.95907446647044,354.66920423499624,113.01834011259469
91.4153,91.4153,438.99550089056635,354.75192820045345,113.03728877631693
91.422,91.422,439.02440331832906,354.8365894641456,113.03749049853853
91.4288,91.4288,439.04756720647407,354.92091205325613,113.05282506432435
91.4355,91.4355,439.06870743098176,355.0051475083647,113.07762149697585
91.4423,91.4423,439.0931228330457,355.0920070059484,113.10434757291785
91.449,91.449,439.1264430306418,355.1851027206263,113.12539781099727
91.4558,91.4558,439.1729495532445,355.2867065833456,113.1341785007481
91.4625,91.4625,439.23429107342974,355.3959676440931,113.14251719419569
91.4693,91.4693,439.30913533041297,355.5082950510797,113.17066730244062
91.476,91.476,439.3936830210759,355.6159894712083,113.21902577669505
91.4828,91.4828,439.48259192334433,355.70976950516234,113.28579730103519
91.4895,91.4895,439.5699820220378,355.78063182436205,113.36730818235453
91.4963,91.4963,439.6503805855664,355.8214849326597,113.45853008356843
91.503,91.503,439.71944962609115,355.8282169947435,113.5537753926261
91.5098,91.5098,439.77439682862496,355.8562680100181,113.64743743169731
91.5165,91.5165,439.8141443311475,355.916379695935,113.73460621711669
91.5233,91.5233,439.83940285167085,356.0030550111317,113.81139728084113
91.53,91.53,439.85269900997787,356.1090411781372,113.87492773316148
91.5368,91.5368,439.8581518889415,356.22635149963736,113.92310795232909
91.5435,91.5435,439.86059313429854,356.3469147226818,113.95460989230351
91.5503,91.5503,439.86402948272803,356.4628803849076,113.96918485669224
91.557,91.557,439.8703274035365,356.56709528184905,113.97031450101555
91.5638,91.5638,439.8789887312649,356.65428718487107,113.98436300029235
91.5705,91.5705,439.88780908514525,356.72271449631324,114.00727742841441
91.5773,91.5773,439.89367156502806,356.7752439742037,114.0343284322808
91.584,91.584,439.8941720014458,356.8190495540967,114.06085172127831
91.5908,91.5908,439.90416888649617,356.8640384808623,114.08294053052086
91.5975,91.5975,439.925983491889,356.9206876827405,114.09791894894813
91.6043,91.6043,439.96071871151645,356.99797431735897,114.10453331736606
91.611,91.611,440.0080992903375,357.10182979838225,114.10620926099703
91.6178,91.6178,440.06655839119173,357.23430142873565,114.11514852012155
91.6245,91.6245,440.1335227777434,357.39347873714064,114.12996274091974
91.6313,91.6313,440.20592712060557,357.57421301957976,114.14955044817243
91.638,91.638,440.28098752100334,357.7695715633386,114.17358330986997
91.6448,91.6448,440.35705566754604,357.9726963167819,114.20262868028112
91.6515,91.6515,440.4342156539896,358.17848855686674,114.23779175948515
91.6583,91.6583,440.514368713585,358.3846602500895,114.2799641434647
91.665,91.665,440.60079798421054,358.59213116480305,114.32900375464223
91.6718,91.6718,440.69750422317264,358.8050868333286,114.38324763123435
91.6785,91.6785,440.8086995281856,359.0309882465223,114.43966868365096
91.6853,91.6853,440.93854702247955,359.28047767001954,114.49475122843953
91.692,91.692,441.09082569518404,359.56671899537395,114.54581442860167
91.6988,91.6988,441.2681179065727,359.9037713194721,114.59235382014063
91.7055,91.7055,441.47037058200874,360.30363604205917,114.63674602133085
91.7123,91.7123,441.6887762085601,360.76891447296134,114.68120878864063
91.719,91.719,441.8867565719046,361.2735001772423,114.71800400594304
91.7258,91.7258,441.9802994368075,361.73295834789525,114.72178768537266
91.7325,91.7325,442.1052899110066,361.9946493992201,114.78378373416403
91.7393,91.7393,442.53424537486853,362.1083980083824,114.92754834334293
91.746,91.746,443.27501019469474,362.72069328806117,115.13727068940157
91.7528,91.7528,444.25764498659714,363.84101083323907,115.37111611865912
91.7595,91.7595,445.36931540406727,365.360633878649,115.57818452033236
91.7663,91.7663,446.4919967759508,367.0902929438832,115.71538371247061
91.773,91.773,447.52597169020027,368.81085855334067,115.76023973360002
91.7798,91.7798,448.3997041136674,370.3189884118862,115.80441383643392
91.7865,91.7865,449.0727644977602,371.46187947539704,115.91394898011963
91.7933,91.7933,449.53519668866284,372.158564897398,116.05713783343622
91.8,91.8,449.80334709983083,372.40613107898326,116.2046662532313
91.8068,91.8068,449.9124885136564,372.54128899923865,116.33285260322661
91.8135,91.8135,449.9173277546663,372.94493271054733,116.42220339617178
91.8203,91.8203,449.99035025650807,373.483424254684,116.45680223927947
91.827,91.827,450.0916104608873,374.0308923914252,116.48722072599637
91.8338,91.8338,450.19035005624784,374.4886485989855,116.58468484165306
91.8405,91.8405,450.2661213815274,374.7947532424086,116.74210191730137
91.8473,91.8473,450.3088358129643,374.9249901027506,116.94452576399318
91.854,91.854,450.3174988385328,374.96217677684047,117.17205572910464
91.8608,91.8608,450.33758456041454,375.13425345251204,117.40338749434913
91.8675,91.8675,450.37811065531326,375.39471411244466,117.61886655164885
91.8743,91.8743,450.4303502649115,375.69326209409047,117.80248908529822
91.881,91.881,450.48678068679857,375.9846398492384,117.94302913524852
91.8878,91.8878,450.5418552591659,376.2348024987842,118.03451379438182
91.8945,91.8945,450.59210440630744,376.42387351330336,118.0760338043663
91.9013,91.9013,450.63590843240195,376.54615770800825,118.08104043036057
91.908,91.908,450.67307375642577,376.6079163805735,118.12573155474595
91.9148,91.9148,450.70447057537257,376.6238019146356,118.20096695818982
91.9215,91.9215,450.73175045644757,376.6350235575682,118.29648074189039
91.9283,91.9283,450.756498901229,376.6548631671309,118.40173247172443
91.935,91.935,450.7791013917104,376.6685111828981,118.50636248068199
91.9418,91.9418,450.7983264861629,376.6704140007391,118.60066409494785
91.9485,91.9485,450.811609777924,376.6913417647542,118.6763352835776
91.9553,91.9553,450.8156075794729,376.7294220241445,118.72731381499167
91.962,91.962,450.82417859853524,376.7788007837917,118.7503984768296
91.9688,91.9688,450.8475688336412,376.8316114681012,118.75523268180068
91.9755,91.9755,450.88630280734407,376.8801670077486,118.78488064875016
91.9823,91.9823,450.9389145389239,376.91882816749165,118.83364096680917
91.989,91.989,451.0021530964601,376.9449955832736,118.89418726452571
91.9958,91.9958,451.0717000458021,376.9590899336776,118.9586839611579
92.0025,92.0025,451.14308736231146,376.9638719885264,119.01975935613747
92.0093,92.0093,451.2123436281807,376.96414012183,119.07119004417856
92.016,92.016,451.2761782380321,376.9642660425734,119.10836126883835
92.0228,92.0228,451.3316751048394,376.97020397419317,119.12866056665776
92.0295,92.0295,451.3756236764701,376.988754954099,119.13169763424247
92.0363,92.0363,451.4041700760897,377.0268072302634,119.14428277862373
92.043,92.043,451.4134979990583,377.09092572998674,119.16942955394602
92.0498,92.0498,451.42586734846776,377.1862426416301,119.20344065852693
92.0565,92.0565,451.4602712098376,377.31512385018584,119.24258190037588
92.0633,92.0633,451.51495366394033,377.47609433237403,119.28336288723848
92.07,92.07,451.586330292732,377.66348609972334,119.32273144992635
92.0768,92.0768,451.6688692062921,377.86788653653286,119.35841362690418
92.0835,92.0835,451.75491117169935,378.0770107072199,119.389307130809
92.0903,92.0903,451.83519700914866,378.27654393432226,119.41563695750928
92.097,92.097,451.90011423144193,378.45087811245736,119.43872774387656
92.1038,92.1038,451.94099678771573,378.58412519690876,119.46048367683021
92.1105,92.1105,451.9510686404773,378.6617056726633,119.48274233849372
92.1173,92.1173,451.97603595834227,378.6722755945149,119.5066575382772
92.124,92.124,452.0371725188236,378.7350791487192,119.5322762495679
92.1308,92.1308,452.13218954004066,378.87153762696516,119.55848103490344
92.1375,92.1375,452.2557342153899,379.07573955444326,119.58339916311834
92.1443,92.1443,452.40063065013095,379.3366134682667,119.60524354987919
92.151,92.151,452.559635486888,379.63994104075834,119.62340178929671
92.1578,92.1578,452.727134432544,379.97087900301625,119.6394381529506
92.1645,92.1645,452.9004123380071,380.3163954821749,119.65758957581996
92.1713,92.1713,453.080279810839,380.66709269924934,119.68445862504065
92.178,92.178,453.2708874695897,381.01807128291364,119.72790026054057
92.1848,92.1848,453.47871958357985,381.3687499448827,119.79537281714673
92.1915,92.1915,453.71103047332014,381.7218631102253,119.89218983141262
92.1983,92.1983,453.97418679490244,382.0820712377764,120.02016400523027
92.205,92.205,454.2724217657098,382.45462373121273,120.1770596638379
92.2118,92.2118,454.6074215677478,382.8444975691004,120.35699924485328
92.2185,92.2185,454.9788245444313,383.2563211463905,120.55152697180806
92.2253,92.2253,455.3851548295901,383.69494712440445,120.75079973402727
92.232,92.232,455.8244897278572,384.1662251839258,120.94466191100067
92.2388,92.2388,456.2945108920938,384.6777221491817,121.1238605490846
92.2455,92.2455,456.7920208281851,385.2393784299855,121.28169805870375
92.2523,92.2523,457.3123312140441,385.86391352084775,121.41564885026987
92.259,92.259,457.84900681762963,386.56617162314035,121.52733101779091
92.2658,92.2658,458.39133857544766,387.3578344463363,121.61680187615595
92.2725,92.2725,458.90918612726887,388.2282850636504,121.66740507308808
92.2793,92.2793,459.32445792696336,389.1041873456588,121.70178854267769
92.286,92.286,459.50643271652245,389.8121283916188,121.88157275712605
92.2928,92.2928,459.68660292995594,390.1051818175112,122.23919497890019
92.2995,92.2995,460.2777829123609,390.44136862901547,122.7462598041014
92.3063,92.3063,461.21659262928785,391.4810258442655,123.31557400331002
92.313,92.313,462.3597152903013,393.12749226100186,123.8309279775165
92.3198,92.3198,463.54427308971066,395.1565855140318,124.18657286877966
92.3265,92.3265,464.6327634547623,397.28592719963325,124.32072980080193
92.3333,92.3333,465.5290002874917,399.23648408300437,124.41152725369389
92.34,92.34,466.17924324867437,400.780517886578,124.68190259909278
92.3468,92.3468,466.57049378952155,401.7768446513451,125.06109722573028
92.3535,92.3535,466.72477652632745,402.1881127347959,125.4744965557128
92.3603,92.3603,466.76202251316266,402.301054672394,125.85590590728765
92.367,92.367,466.9353738339237,402.805090537909,126.1534577221436
92.3738,92.3738,467.1894606130349,403.5311992244642,126.33291288444684
92.3805,92.3805,467.47477123889524,404.31018374324736,126.3789040986632
92.3873,92.3873,467.75155151801414,405.00068765664463,126.46388920106173
92.394,92.394,467.9923013273635,405.5063766396985,126.6624672540826
92.4008,92.4008,468.1816646359416,405.78152960117086,126.94679553221667
92.4075,92.4075,468.3142671156075,405.82645861151565,127.28368192806101
92.4143,92.4143,468.3921424850926,405.9767186285785,127.63933639923614
92.421,92.421,468.4228096335674,406.26597119302374,127.98305694193243
92.4278,92.4278,468.427453696547,406.62911518681966,128.2895489933076
92.4345,92.4345,468.453046740698,407.002382711382,128.54005639082285
92.4413,92.4413,468.4864631533914,407.33249949836727,128.72297876397985
92.448,92.448,468.51907730923847,407.58424952067435,128.8343160285413
92.4548,92.4548,468.5474233143227,407.74422253111356,128.87741559086325
92.4615,92.4615,468.57200499835733,407.8194335334213,128.89334694039093
92.4683,92.4683,468.5959173249112,407.8318572568562,128.9555435278919
92.475,92.475,468.6237559102512,407.85245095785325,129.04975133764472
92.4818,92.4818,468.66064917801367,407.8753442798403,129.16163722899338
92.4885,92.4885,468.71127732607613,407.87614728041143,129.2780083535768
92.4953,92.4953,468.77853059320984,407.91754068873666,129.38828232462532
92.502,92.502,468.86176015163454,408.0044854977476,129.4860048070851
92.5088,92.5088,468.955452177302,408.1293328928605,129.5697731623277
92.5155,92.5155,469.0490698564667,408.27335720587166,129.64307741226796
92.5223,92.5223,469.12796825111803,408.40981807826677,129.71308536133995
92.529,92.529,469.1751229213435,408.5079279017755,129.78875197534882
92.5358,92.5358,469.176724335575,408.5371943229082,129.87879717305177
92.5425,92.5425,469.2415039708037,408.6028524177118,129.99000932806365
92.5493,92.5493,469.37925849578113,408.7817368851136,130.125877562291
92.556,92.556,469.59418609386705,409.0823152996993,130.28539324381148
92.5628,92.5628,469.88488323436303,409.5029363215026,130.46237980491878
92.5695,92.5695,470.24476703887206,410.03321648566686,130.64602515941996
92.5763,92.5763,470.6628980228176,410.6565283481191,130.82284124302905
92.583,92.583,471.1240771562549,411.3518829735935,130.97857375006484
92.5898,92.5898,471.60294540560767,412.09121544488454,131.09623407164287
92.5965,92.5965,472.0504283920243,412.8294736412639,131.15061984354986
92.6033,92.6033,472.3859915503616,413.49328832017665,131.19142097827324
92.61,92.61,472.5148768187576,413.9818750895723,131.34995025247997
92.6168,92.6168,472.6599245359189,414.1891732030282,131.61904827578405
92.6235,92.6235,473.0817797417752,414.33923281630223,131.9558986987974
92.6303,92.6303,473.7167169864736,414.86372019014874,132.2964763787146
92.637,92.637,474.4630369830632,415.71119859626253,132.57865687219353
92.6438,92.6438,475.2140528074956,416.7724058346169,132.7593243785748
92.6505,92.6505,475.8791433959816,417.9044253068632,132.82116076591248
92.6573,92.6573,476.3933486567791,418.9598864712997,132.8704399764769
92.664,92.664,476.72066252888675,419.8139147392635,133.00368781548124
92.6708,92.6708,476.853388723637,420.3835464189316,133.18261153442293
92.6775,92.6775,476.89902978418996,420.6366217166691,133.36609148830647
92.6843,92.6843,477.08995937066425,420.6834035320616,133.51666440908394
92.691,92.691,477.38369837208694,420.97503472678625,133.60518766402953
92.6978,92.6978,477.7349619748031,421.43340358615234,133.61435267627212
92.7045,92.7045,478.1016530893465,421.973076191627,133.68799850507364
92.7113,92.7113,478.45013692470263,422.51485605155244,133.83450942607945
92.718,92.718,478.7585692722262,422.9956821779344,134.03365639815217
92.7248,92.7248,479.01739823533376,423.37423409584426,134.25963528640625
92.7315,92.7315,479.22743354205954,423.6321904284267,134.48585332847622
92.7383,92.7383,479.39655264132165,423.7717015564527,134.6887721678156
92.745,92.745,479.5361133955494,423.8103481804209,134.85036006286063
92.7518,92.7518,479.6579940897913,423.84560064194034,134.95896358655622
92.7585,92.7585,479.7726521198436,423.92446191758995,135.00894561249248
92.7653,92.7653,479.8877884426664,424.01857503015265,135.01793400107846
92.772,92.772,480.00708642945085,424.1050728762705,135.08145794746954
92.7788,92.7788,480.1292138236605,424.1683767643909,135.1907049627322
92.7855,92.7855,480.2478878706307,424.20080077490366,135.33334371246096
92.7923,92.7923,480.3536029296295,424.20204081797334,135.49518578101674
92.799,92.799,480.43671743413154,424.2265237986262,135.66225127744113
92.8058,92.8058,480.4905886102677,424.26768676419584,135.82225755146501
92.8125,92.8125,480.5133117281842,424.315102832326,135.96499379450745
92.8193,92.8193,480.5190131088614,424.3589048769232,136.08212068865058
92.826,92.826,480.5473161592109,424.3911507995344,136.1672815842041
92.8328,92.8328,480.59165049153,424.4062372205552,136.21684429499078
92.8395,92.8395,480.6473417868744,424.41219839095237,136.23090621749495
92.8463,92.8463,480.71363722295825,424.4425660292847,136.24797270819153
92.853,92.853,480.79332765759017,424.5006572485763,136.2878074716952
92.8598,92.8598,480.8890334815219,424.58826812903146,136.33886981598206
92.8665,92.8665,480.998097078849,424.7022584792767,136.38738135735005
92.8733,92.8733,481.1090631167118,424.83059328819303,136.41835567803167
92.88,92.88,481.2011285567457,424.9499600800435,136.4198752233965
92.8868,92.8868,481.2464992578403,425.0268179327203,136.4671929544998
92.8935,92.8935,481.27801440405926,425.0315232003687,136.5698368522263
92.9003,92.9003,481.41337297778284,425.1555231899441,136.7311827289214
92.907,92.907,481.67113541978443,425.42840185406004,136.94668668811227
92.9138,92.9138,482.0579571802519,425.8664644713341,137.2037785842276
92.9205,92.9205,482.56720061545894,426.47020596070826,137.48382337592378
92.9273,92.9273,483.1796942906261,427.22460822559924,137.76566371656503
92.934,92.934,483.86689053874795,428.101969566421,138.0297219350913
92.9408,92.9408,484.59446303108916,429.06522588453555,138.2602874892842
92.9475,92.9475,485.31940639117994,430.0669982751826,138.44174754289136
92.9543,92.9543,485.9778360034057,431.0412745462272,138.54989792672671
92.961,92.961,486.47855266267624,431.8937813559267,138.55144466018822
92.9678,92.9678,486.7249275035366,432.50615742845895,138.68118264625153
92.9745,92.9745,486.78992020291093,432.7633186068006,138.9347243452695
92.9813,92.9813,487.15429159947945,432.9333793924584,139.26542216751
92.988,92.988,487.74694583479635,433.529441721133,139.60231694144252
92.9948,92.9948,488.46811394966886,434.4707338864641,139.87359273324486
93.0015,93.0015,489.2137758887777,435.6149482981746,140.02570171620718
93.0083,93.0083,489.8894067235246,436.7918681211052,140.0342895423041
93.015,93.015,490.42026894879564,437.84037464941974,140.16134455344294
93.0218,93.0218,490.76056171955685,438.6381541784592,140.38811401904107
93.0285,93.0285,490.897268847826,439.11821727215937,140.66023407360075
93.0353,93.0353,490.9480619105654,439.271563504253,140.91650208597613
93.042,93.042,491.1492129365282,439.4045912032207,141.09935245267616
93.0488,93.0488,491.45136686168235,439.75033213981357,141.16329365995344
93.0555,93.0555,491.8017293234921,440.2204963065438,141.24514589632147
93.0623,93.0623,492.15219219924666,440.72894022659005,141.47718672135966
93.069,93.069,492.4654219307549,441.2037070925833,141.84127219260068
93.0758,93.0758,492.7182202016608,441.5937126771899,142.30044058204828
93.0825,93.0825,492.90206131370314,441.8706182842381,142.80514480865497
93.0893,93.0893,493.02063208207795,442.02681406976166,143.3007850130914
93.096,93.096,493.08520613712295,442.07084663560636,143.7356418548082
93.1028,93.1028,493.10995651023285,442.1197802663524,144.06810335609066
93.1095,93.1095,493.1112442450818,442.2370163062906,144.27177982504514
93.1163,93.1163,493.12702856792106,442.396684308672,144.33739179272825
93.123,93.123,493.14861928521975,442.57496316212297,144.40336993060703
93.1298,93.1298,493.1699812213871,442.7528013788861,144.5821889610569
93.1365,93.1365,493.18775060302755,442.9182429084135,144.84704486298196
93.1433,93.1433,493.20142860314525,443.0672548672467,145.16720831939864
93.15,93.15,493.2129794115466,443.20211347070205,145.51192484143314
93.1568,93.1568,493.22617145287103,443.3282991659904,145.85395214105122
93.1635,93.1635,493.24638857702,443.45190008007336,146.17210541553806
93.1703,93.1703,493.2809212116399,443.57865928460194,146.452417550465
93.177,93.177,493.33896442262454,443.71428374599213,146.6880944134098
93.1838,93.1838,493.4299547702188,443.8643332249486,146.87852038749693
93.1905,93.1905,493.5596976990105,444.0320087637867,147.02759786455206
93.1973,93.1973,493.72568201756354,444.2140697064012,147.14166558214572
93.204,93.204,493.91377160873367,444.3969208912754,147.227312829748
93.2108,93.2108,494.09761208396844,444.55507481958,147.28978315383702
93.2175,93.2175,494.2410539409722,444.65308051748167,147.33269387046587
93.2243,93.2243,494.3031569588761,444.65561479826266,147.35960785224736
93.231,93.231,494.3616462997729,444.79720418589176,147.377329010707
93.2378,93.2378,494.57154757614194,445.1073991133022,147.39853641507446
93.2445,93.2445,494.94943719858526,445.60110549834747,147.44005081324983
93.2513,93.2513,495.49436007640503,446.2760463026094,147.51634710173587
93.258,93.258,496.1878655455475,447.11392218963925,147.63215874632286
93.2648,93.2648,496.9966845872914,448.0841323729725,147.7775619916869
93.2715,93.2715,497.87667954645684,449.14791185141155,147.92599403056283
93.2783,93.2783,498.77286731189037,450.2592455213336,148.03424172143443
93.285,93.285,499.60699832654336,451.3574805527127,148.0447737354895
93.2918,93.2918,500.2606309672959,452.35077174791957,148.19496990378016
93.2985,93.2985,500.58628596102074,453.1051931833647,148.55551678179563
93.3053,93.3053,500.7102467267259,453.4651995415599,149.1391138104714
93.312,93.312,501.3184108374927,453.62279406845613,149.90554903567727
93.3188,93.3188,502.341494079878,454.33448886433695,150.76188081236074
93.3255,93.3255,503.63798051495314,455.5280564406739,151.57813975183117
93.3323,93.3323,505.0400223618135,457.039454430749,152.2129403681497
93.339,93.339,506.3871459332103,458.6554817387804,152.54473978964657
93.3458,93.3458,507.5451613390929,460.1624627218181,152.58688115414435
93.3525,93.3525,508.4186249469886,461.3862784024713,153.00458849016226
93.3593,93.3593,508.9601340625625,462.2175558964115,153.73215666741456
93.366,93.366,509.17217328783624,462.62112876262165,154.65666682279576
93.3728,93.3728,509.2452338660409,462.6312565231226,155.64559151942524
93.3795,93.3795,509.5314697005746,462.9272265466844,156.57189763964922
93.3863,93.3863,509.9469003079464,463.4123772270737,157.3322488039311
93.393,93.393,510.4090472503634,463.96500915984006,157.85822831136662
93.3998,93.3998,510.84758601794715,464.4792148161454,158.1213139113722
93.4065,93.4065,511.2116190249145,464.87809579882077,158.13148007546698
93.4133,93.4133,511.4729065915636,465.1191937647323,158.33335718554957
93.42,93.42,511.62483333188794,465.1933754052098,158.68725679744193
93.4268,93.4268,511.67776846616886,465.26776156891265,159.12667513259814
93.4335,93.4335,511.7032223796458,465.4534281179022,159.58941798907915
93.4403,93.4403,511.78302148368687,465.70353502234514,160.02497310858254
93.447,93.447,511.89464976113373,465.97067633965383,160.39810731690457
93.4538,93.4538,512.0195861708612,466.21450338181523,160.6892556507891
93.4605,93.4605,512.1439214980843,466.40682780130925,160.89284201042437
93.4673,93.4673,512.2579488160837,466.53340628686226,161.01461995087035
93.474,93.474,512.3550685145456,466.5930780613112,161.06822653745974
93.4808,93.4808,512.4306534044343,466.59568390817344,161.07123600210127
93.4875,93.4875,512.4811436037279,466.63261670673074,161.10030814093068
93.4943,93.4943,512.503551159768,466.6888761960841,161.1432799239722
93.501,93.501,512.5102814406858,466.7467250410617,161.1828773992382
93.5078,93.5078,512.5426050076475,466.794099638446,161.20388359879047
93.5145,93.5145,512.5917451665068,466.8252333755557,161.21276310441738
93.5213,93.5213,512.6461261381961,466.8393608848233,161.2570823977832
93.528,93.528,512.6946525940681,466.8400404107302,161.3356454824965
93.5348,93.5348,512.7290044716722,466.8520544621626,161.4407518275776
93.5415,93.5415,512.7447927786684,466.87162826886697,161.55976004349307
93.5483,93.5483,512.747881987468,466.895230651697,161.677596272998
93.555,93.555,512.7670431335716,466.91994931512505,161.7795430214721
93.5618,93.5618,512.7980199962828,466.9437342077745,161.85356284880933
93.5685,93.5685,512.8367379333922,466.96562162666146,161.89169802518063
93.5753,93.5753,512.880370839893,466.9859421299826,161.89286101259424
93.582,93.582,512.9276203090853,467.0062544779609,161.9324644201181
93.5888,93.5888,512.978280957912,467.0288351011956,162.0061630703643
93.5955,93.5955,513.0324826415034,467.0558935458371,162.10716924486823
93.6023,93.6023,513.0900760789292,467.088878711752,162.22732413123074
93.609,93.609,513.1503998306763,467.1281250456083,162.35802650534896
93.6158,93.6158,513.2123573506855,467.17281158442404,162.49094087027976
93.6225,93.6225,513.2746169735836,467.2210907698589,162.618508169969
93.6293,93.6293,513.3358574035102,467.27036582347483,162.73433686740606
93.636,93.636,513.395076611976,467.31778372401504,162.83354550492308
93.6428,93.6428,513.4519384480326,467.360894368657,162.9130685431751
93.6495,93.6495,513.5070183033495,467.39825547559155,162.9718600768307
93.6563,93.6563,513.5617408720254,467.4297415041779,163.01092108568164
93.663,93.663,513.617917175848,467.45648586543683,163.0331448259172
93.6698,93.6698,513.677081573164,467.48056939763256,163.0429908631312
93.6765,93.6765,513.7399609939913,467.5045341226419,163.04594434712058
93.6833,93.6833,513.8061427706423,467.5307076826739,163.0477398808164
93.69,93.69,513.8737996432296,467.560474666569,163.05338351175948
93.6968,93.6968,513.9395732132322,467.59382019627685,163.06606485046348
93.7035,93.7035,513.998930397818,467.6293387964357,163.0862131703943
93.7103,93.7103,514.0470484609951,467.6645888338015,163.11105525536527
93.717,93.717,514.0799137049294,467.6965717616077,163.13492271083433
93.7238,93.7238,514.0952235153754,467.72223828279994,163.15032315350513
93.7305,93.7305,514.0976470550953,467.7389911779595,163.15110251736346
93.7373,93.7373,514.1159944388614,467.7451360146401,163.1742724370295
93.744,93.744,514.1470056886909,467.75006080050696,163.22315774485142
93.7508,93.7508,514.1866977938323,467.76518953681745,163.29748800060307
93.7575,93.7575,514.2311061623319,467.78857058865134,163.39345895307343
93.7643,93.7643,514.2768288509616,467.8176591087849,163.50445233960545
93.771,93.771,514.320938685506,467.84972937148467,163.62222374493993
93.7778,93.7778,514.3604344292046,467.8821392468346,163.73844785523613
93.7845,93.7845,514.3923094208859,467.91286533954064,163.84632633662903
93.7913,93.7913,514.4137570329975,467.94094340096507,163.94144053618618
93.798,93.798,514.4216498627627,467.96594221469235,164.02153653263545
93.8048,93.8048,514.4302344591754,467.9870681316382,164.0858653402822
93.8115,93.8115,514.455934431223,468.002988134654,164.13454024673192
93.8183,93.8183,514.4959866531955,468.01226993919005,164.1681431633588
93.825,93.825,514.5450870330427,468.0139512283287,164.18758348541164
93.8318,93.8318,514.5968259361588,468.01985479529833,164.1938709435174
93.8385,93.8385,514.6445409630312,468.03209165705755,164.19995148628223
93.8453,93.8453,514.6818545224532,468.0483989260334,164.21804288656224
93.852,93.852,514.703594742078,468.06612787268335,164.248220018017
93.8588,93.8588,514.7068784914086,468.08289928886165,164.29075028654339
93.8655,93.8655,514.7221331711053,468.0971085578297,164.3456228552991
93.8723,93.8723,514.7534274579698,468.1082598163551,164.41195954104867
93.879,93.879,514.7963692873542,468.11697960653396,164.48743635381354
93.8858,93.8858,514.8456046496582,468.12460146220104,164.5678820426605
93.8925,93.8925,514.8957357248744,468.1324494648778,164.6473284312046
93.8993,93.8993,514.9420173239305,468.14111373488004,164.71872982640627
93.906,93.906,514.9808352651069,468.1500538304547,164.77521451053283
93.9128,93.9128,515.0100132358752,468.1577252419088,164.81140757057875
93.9195,93.9195,515.0288886251374,468.16213415827855,164.8243883562484
93.9263,93.9263,515.0380776986717,468.162731980718,164.8346905751957
93.933,93.933,515.0389959056263,468.1692566258523,164.86567632343565
93.9398,93.9398,515.0446418050044,468.18151880672025,164.91275522659708
93.9465,93.9465,515.0552167763278,468.1982678305898,164.97035629491936
93.9533,93.9533,515.0693393188081,468.21751305701014,165.03300720002125
93.96,93.96,515.0859190574233,468.2370187725706,165.09620206003953
93.9668,93.9668,515.1041275651955,468.2548335172859,165.15686732018298
93.9735,93.9735,515.1233582704639,468.26969549999876,165.213399434444
93.9803,93.9803,515.1431405652628,468.2812274541279,165.26539231997847
93.987,93.987,515.1629962117365,468.2899050292899,165.313216490971
93.9938,93.9938,515.1823544684801,468.29682053776094,165.35756749429123
94.0005,94.0005,515.2006123046569,468.30331701803624,165.3990553159042
94.0073,94.0073,515.2172746729511,468.3105979736727,165.43790829303896
94.014,94.014,515.232082693266,468.3194023104807,165.47384298614946
94.0208,94.0208,515.2450810713337,468.3298090209229,165.50606487934527
94.0275,94.0275,515.2565898152401,468.3412316624087,165.53333950978652
94.0343,94.0343,515.2670935721869,468.35263915413907,165.55415671063523
94.041,94.041,515.2770849202119,468.36293988826384,165.5670060485257
94.0478,94.0478,515.2868727360599,468.3713576491039,165.57066461218972
94.0545,94.0545,515.296367867206,468.3776281935073,165.5768653580424
94.0613,94.0613,515.3048916900838,468.3820263351204,165.5928151996365
94.068,94.068,515.3112295328752,468.3853652388845,165.61765885111845
94.0748,94.0748,515.3141437234906,468.3889003835343,165.64996764724737
94.0815,94.0815,515.3152833280595,468.3940254186085,165.68767057138825
94.0883,94.0883,515.3202973805808,468.40193925282966,165.72794333464142
94.095,94.095,515.3283952771363,468.4134531899986,165.76742275628683
94.1018,94.1018,515.3384406634231,468.4289228355896,165.80271031477125
94.1085,94.1085,515.3491019364743,468.44825138084315,165.83097927839881
94.1153,94.1153,515.3587992741719,468.4709007569568,165.85048153829987
94.122,94.122,515.365612302275,468.4959084501997,165.86077789270513
94.1288,94.1288,515.3673771090777,468.5218977251015,165.8626772135182
94.1355,94.1355,515.3731945471561,468.5468858262444,165.86730064498917
94.1423,94.1423,515.3899228073121,468.5679567349244,165.87573793248626
94.149,94.149,515.4210220732367,468.5814465372152,165.8848569934773
94.1558,94.1558,515.4679369216623,468.58392340773776,165.89172240905378
94.1625,94.1625,515.5284604840755,468.59448162010875,165.894244818081
94.1693,94.1693,515.5969155770023,468.61793735671324,165.89687606296087
94.176,94.176,515.6654740953721,468.651855091736,165.9040753102561
94.1828,94.1828,515.7258204729087,468.69188459401056,165.91396528786626
94.1895,94.1895,515.7708098554863,468.73246942591413,165.92367931384018
94.1963,94.1963,515.7957622729544,468.7677699774349,165.92989636470926
94.203,94.203,515.7990664274961,468.7927192366627,165.9302793248286
94.2098,94.2098,515.8161518578564,468.80399430932835,165.93950452560773
94.2165,94.2165,515.8502824266272,468.8073787797802,165.95849457027094
94.2233,94.2233,515.8970127466932,468.8240502710675,165.986720850816
94.23,94.23,515.9516697624667,468.8507841502126,166.02243548469787
94.2368,94.2368,516.0099507302186,468.8833020213661,166.06313464743423
94.2435,94.2435,516.068251546011,468.91712592418514,166.10607316806133
94.2503,94.2503,516.1237888245696,468.9483159630326,166.14872639699942
94.257,94.257,516.1745470521192,468.97396941948705,166.18917225738517
94.2638,94.2638,516.2191312858233,468.99243484187843,166.2263351332481
94.2705,94.2705,516.2566427426774,469.0032940601305,166.25996808662916
94.2773,94.2773,516.2866154660597,469.0072285967512,166.2903406555324
94.284,94.284,516.3089915278823,469.0086175737608,166.3177712749604
94.2908,94.2908,516.3241068320585,469.01307958269945,166.3422241971158
94.2975,94.2975,516.3326200943036,469.0181130085859,166.36314412470097
94.3043,94.3043,516.3353298030958,469.02140877597895,166.37955412916574
94.311,94.311,516.3377017432776,469.02160080863206,166.39032465884034
94.3178,94.3178,516.3446167279589,469.0262556106409,166.3944987279028
94.3245,94.3245,516.3556789181855,469.03554661865206,166.39747547397852
94.3313,94.3313,516.3705191677178,469.04899931012477,166.40777977244105
94.338,94.338,516.388701552219,469.06572012827127,166.4254519521752
94.3448,94.3448,516.409707654563,469.0845884349902,166.4505920665381
94.3515,94.3515,516.432945771809,469.10441360691266,166.48338714101453
94.3583,94.3583,516.4576584119256,469.12412259172004,166.52422804762793
94.365,94.365,516.4826888194807,469.14295713908564,166.57423574826726
94.3718,94.3718,516.5062803396172,469.1605595774504,166.63595726723267
94.3785,94.3785,516.5261437323247,469.1769091066111,166.7134663644008
94.3853,94.3853,516.5397920717263,469.19224377565337,166.81151591956595
94.392,94.392,516.5449305396606,469.20707084094306,166.93425972922736
94.3988,94.3988,516.5501001538357,469.22220036718056,167.08424827375694
94.4055,94.4055,516.5666754977163,469.23874332720237,167.26195886316984
94.4123,94.4123,516.5949920221146,469.2581317598736,167.46580166540176
94.419,94.419,516.6345728666101,469.28215028258586,167.69245112664422
94.4258,94.4258,516.6841087995342,469.31284575354545,167.93728730502164
94.4325,94.4325,516.7418508489523,469.3521099461842,168.1949259444414
94.4393,94.4393,516.8054754384614,469.4006100546267,168.45988717116495
94.446,94.446,516.870506640115,469.4563242448358,168.72684477284525
94.4528,94.4528,516.9294374893078,469.5137568236525,168.98981613662247
94.4595,94.4595,516.973204850162,469.56417500390535,169.24062116342705
94.4663,94.4663,516.9932807656667,469.59621588634803,169.46768666527498
94.473,94.473,517.0036211641959,469.5968624660989,169.65660601313883
94.4798,94.4798,517.0483377028248,469.6401179638756,169.79341461905523
94.4865,94.4865,517.1276663049729,469.73566845209314,169.86957007349167
94.4933,94.4933,517.237724378407,469.88395450473894,169.88598927945378
94.5,94.5,517.371125870699,470.075613213406,169.91788533233407
94.5068,94.5068,517.5183297968041,470.29316325371735,169.9783811746482
94.5135,94.5135,517.6689795304839,470.516022004514,170.0438840900946
94.5203,94.5203,517.8129053314017,470.72716622507477,170.09229188863264
94.527,94.527,517.9407881663915,470.9187946134368,170.10835639467805
94.5338,94.5338,518.0440767224671,471.09452952428967,170.1288513791351
94.5405,94.5405,518.114012163459,471.2673836768516,170.17744027976246
94.5473,94.5473,518.1407075476991,471.45474949441075,170.23441445420664
94.554,94.554,518.1680118070985,471.67269356117083,170.2728716643561
94.5608,94.5608,518.2595364572145,471.9315069055605,170.28157013211106
94.5675,94.5675,518.4230907171512,472.23356826738956,170.36251985989693
94.5743,94.5743,518.6619645571922,472.57367214125486,170.53364362755198
94.581,94.581,518.972646608894,472.9410499689156,170.8045782215147
94.5878,94.5878,519.3429056375523,473.3218496960776,171.17783453947095
94.5945,94.5945,519.7511589719636,473.70106777292756,171.65079874231748
94.6013,94.6013,520.1680978644594,474.06358860468214,172.21696295320572
94.608,94.608,520.5608186342089,474.3946993967719,172.86585444165917
94.6148,94.6148,520.898387042147,474.680626259799,173.5823276668339
94.6215,94.6215,521.1570416520626,474.90925565081693,174.34621636326548
94.6283,94.6283,521.3234809169754,475.0708735201259,175.13297407214193
94.635,94.635,521.3954053175858,475.158696237238,175.9153832681114
94.6418,94.6418,521.4112629096693,475.16900087912563,176.6659213673029
94.6485,94.6485,521.5024760266576,475.2371633253929,177.35917533486545
94.6553,94.6553,521.6543718009842,475.382422133753,177.97385175518758
94.662,94.662,521.8528234869362,475.6015228199407,178.49407892941937
94.6688,94.6688,522.0860714200943,475.8898441590615,178.9098539650751
94.6755,94.6755,522.3453681511024,476.24207528975467,179.21684778967813
94.6823,94.6823,522.6244866623151,476.65290102126124,179.4160000005691
94.689,94.689,522.9186645900999,477.11746574421034,179.51320855472244
94.6958,94.6958,523.2238009694672,477.63150340774644,179.51914117478492
94.7025,94.7025,523.536456895129,478.19118541446744,179.58937675744684
94.7093,94.7093,523.8547022037562,478.79281686209515,179.717088046779
94.716,94.716,524.1793289282649,479.4324999825987,179.88154883718178
94.7228,94.7228,524.5146780601999,480.10580758935646,180.06203141099994
94.7295,94.7295,524.8685474213737,480.8074520585247,180.23987660523537
94.7363,94.7363,525.2512455779034,481.53098191066425,180.40015944547483
94.743,94.743,525.6742358289985,482.2685928951011,180.53264853618163
94.7498,94.7498,526.1486147462858,483.0111301233311,180.63199270454334
94.7565,94.7565,526.6833689970032,483.74830990358174,180.69725938310336
94.7633,94.7633,527.2835555642196,484.46910847656017,180.73105623425317
94.77,94.77,527.9489352190528,485.162206499104,180.7386147371073
94.7768,94.7768,528.6734802474912,485.8164055031053,180.7500358837967
94.7835,94.7835,529.4457067815273,486.42102474833126,180.77138363431115
94.7903,94.7903,530.2495340288241,486.9662760904445,180.79196877990614
94.797,94.797,531.0656189390616,487.4434822045571,180.80004949801884
94.8038,94.8038,531.873469753096,487.84514436826566,180.8159880586318
94.8105,94.8105,532.6543425355593,488.16507334455304,180.86573056977176
94.8173,94.8173,533.3940761646493,488.39859889296645,180.9561942518891
94.824,94.824,534.0810875438323,488.5437092778164,181.09072580380112
94.8308,94.8308,534.6885949387708,488.6038059200226,181.268834104253
94.8375,94.8375,535.1308141340406,488.6201592854345,181.4901489235297
94.8443,94.8443,535.2103130256199,488.7128467955644,181.76768893522035
94.851,94.851,535.7914402604728,488.91980155580575,182.13699584082514
94.8578,94.8578,537.2992950005436,489.33199253819924,182.63961788118908
94.8645,94.8645,539.7888203023217,490.048949181115,183.2935790292616
94.8713,94.8713,543.0274974897395,491.09389065104943,184.0821844610998
94.878,94.878,546.5821269882742,492.3699600364616,184.96563702040999
94.8848,94.8848,549.9858800534263,493.69574696227096,185.89849848497732
94.8915,94.8915,552.8644951568351,494.8784443029858,186.84009684988632
94.8983,94.8983,554.9849738888312,495.77122815063643,187.7563526241297
94.905,94.905,556.2602026826244,496.29838965962756,188.61715860768433
94.9118,94.9118,556.7328507991472,496.4557921969417,189.39241248704957
94.9185,94.9185,556.9230062333985,496.61488638092254,190.049247230821
94.9253,94.9253,557.5811621481112,497.0008505748056,190.5532387366764
94.932,94.932,558.4989750752087,497.5102636626089,190.8738470011729
94.9388,94.9388,559.4878632953197,498.0459976202583,190.9914143120732
94.9455,94.9455,560.4003303502004,498.5314737709501,191.08033450800684
94.9523,94.9523,561.1396050329032,498.91802478111856,191.3612128227639
94.959,94.959,561.6599903067665,499.18613167776664,191.8034933748404
94.9658,94.9658,561.9602286114842,499.34178854249205,192.365238593676
94.9725,94.9725,562.0722369655306,499.4097211587353,192.99891059610678
94.9793,94.9793,562.0964671665333,499.4252528589743,193.6570454012199
94.986,94.986,562.1974523846455,499.42614150119795,194.29745388035485
94.9928,94.9928,562.3189028456094,499.4449597510609,194.88793669147645
94.9995,94.9995,562.4142371724355,499.5008215712744,195.4110080739528
95.0063,95.0063,562.4460303782345,499.58781535617896,195.86853869278514
95.013,95.013,562.5111749680445,499.65945074165285,196.28081726520816
95.0198,95.0198,562.7050776740555,499.6993409941807,196.67315883747594
95.0265,95.0265,563.0538502270656,499.9760696683987,197.05633506464824
95.0333,95.0333,563.5679794627882,500.5905056804146,197.41656166582183
95.04,95.04,564.2314926507933,501.56964015330544,197.7208998931479
95.0468,95.0468,564.9986302209816,502.8556632300102,197.93136258653124
95.0535,95.0535,565.8024253827559,504.3284257045773,198.01865587817838
95.0603,95.0603,566.5704831167659,505.83838262847917,198.06663262711396
95.067,95.067,567.2396459243453,507.2356862253775,198.24200510422898
95.0738,95.0738,567.7652703214549,508.3923296532892,198.51921474563747
95.0805,95.0805,568.1255508725758,509.218631550576,198.86088646201762
95.0873,95.0873,568.3218819863431,509.67361323022686,199.22495472980737
95.094,95.094,568.3755261410015,509.76729675485535,199.57177158291896
95.1008,95.1008,568.4295690777809,509.9800067017785,199.87035837440868
95.1075,95.1075,568.5500294773608,510.41187872635385,200.10234647868623
95.1143,95.1143,568.6965392629228,510.9594161423934,200.2624765545572
95.121,95.121,568.8349051283615,511.5196128540774,200.35609924033938
95.1278,95.1278,568.9397054838535,512.004515032747,200.39538961926775
95.1345,95.1345,568.9945175902095,512.3508744879084,200.39571638129405
95.1413,95.1413,568.9984055971563,512.5237170839241,200.41886927316057
95.148,95.148,569.0638134411635,512.5327068033074,200.45277487258795
95.1548,95.1548,569.1891989518923,512.709858971723,200.4903017950264
95.1615,95.1615,569.3694542027245,513.0251028089964,200.5320316827772
95.1683,95.1683,569.5957886007294,513.4370307341876,200.58677629072713
95.175,95.175,569.8551233914703,513.8972562285761,200.66986289734368
95.1818,95.1818,570.130225789129,514.3552121007519,200.79882629610154
95.1885,95.1885,570.4006726322209,514.7641575448135,200.98748651725145
95.1953,95.1953,570.6425920929811,515.0871896391825,201.24066546784843
95.202,95.202,570.8269335359486,515.3013717451131,201.5514242769113
95.2088,95.2088,570.9200073078805,515.3991402307586,201.9016461702335
95.2155,95.2155,570.9511424281912,515.4113453670349,202.26576803814052
95.2223,95.2223,571.1304271439396,515.5167295043825,202.6163862939743
95.229,95.229,571.4649099184298,515.6927927105039,202.92973640940667
95.2358,95.2358,571.9396004524946,515.9158727034303,203.18921089288492
95.2425,95.2425,572.5173425845002,516.1652128583046,203.3861854784141
95.2493,95.2493,573.1445582926281,516.426152741319,203.5188083863457
95.256,95.256,573.7607113409597,516.6918771782742,203.59015782323928
95.2628,95.2628,574.3078447622806,516.9634759896015,203.60684376056207
95.2695,95.2695,574.737668159107,517.2484586708697,203.63553750785616
95.2763,95.2763,575.0153324959156,517.5582871447443,203.69855895906403
95.283,95.283,575.1198104232882,517.9057224914549,203.78457003092913
95.2898,95.2898,575.1980949888523,518.3026102455106,203.88399914696782
95.2965,95.2965,575.4609357065145,518.7584636095083,203.99105216068256
95.3033,95.3033,575.9059327918499,519.2798514760225,204.1048683003865
95.31,95.31,576.5293008054899,519.8702940842319,204.22951054984705
95.3168,95.3168,577.3275813766332,520.5304780393914,204.3731891914011
95.3235,95.3235,578.2979908841847,521.2586770151028,204.54725697670568
95.3303,95.3303,579.4372046287519,522.0510772290789,204.76513558880336
95.337,95.337,580.7373058583848,522.9022438352952,205.04110331802653
95.3438,95.3438,582.1746121724569,523.8071102286615,205.38862809575653
95.3505,95.3505,583.6763202517652,524.764350043388,205.82123353342976
95.3573,95.3573,585.0597169707743,525.7730288884095,206.36322331121337
95.364,95.364,586.0108438729404,526.8089315468122,207.0597486841494
95.3708,95.3708,586.1869268571731,527.7909567178878,207.95766536272822
95.3775,95.3775,586.9837171727294,528.5840440230456,209.06598182752882
95.3843,95.3843,588.7082457293019,529.0575265027692,210.3400557928922
95.391,95.391,591.1057583963021,529.1493188993297,211.69849652585802
95.3978,95.3978,593.8125833646947,529.412475731561,213.0462064739967
95.4045,95.4045,596.4528427897448,529.9362727414762,214.28838043693594
95.4113,95.4113,598.7087077193794,530.596576064248,215.33703766158513
95.418,95.418,600.3637405171849,531.2743217871321,216.1154340051832
95.4248,95.4248,601.3191622689097,531.8778838137204,216.56407537559383
95.4315,95.4315,601.5861272400994,532.3521161539379,216.64866228412868
95.4383,95.4383,601.9101562190294,532.6772858107463,216.92922162752964
95.445,95.445,602.6719511696452,532.8620176247343,217.53815160356393
95.4518,95.4518,603.6941706388293,532.9342474517737,218.40314169525607
95.4585,95.4585,604.8042508152278,532.9356379813363,219.42629815408623
95.4653,95.4653,605.8566751250551,532.9668977729993,220.49971715990748
95.472,95.472,606.7482944899709,532.9811886733903,221.52445920617902
95.4788,95.4788,607.4298399329958,533.0393962217308,222.4284918923042
95.4855,95.4855,607.9105568817257,533.2444994159669,223.17546040940815
95.4923,95.4923,608.2460796913583,533.6864164241263,223.75976681902924
95.499,95.499,608.5086741357284,534.4382835178671,224.19361441530285
95.5058,95.5058,608.7556948777428,535.5128865004386,224.49579689404055
95.5125,95.5125,609.0143687935259,536.8428325437471,224.68709456274308
95.5193,95.5193,609.2853684293065,538.2956308792371,224.7905914731049
95.526,95.526,609.5541553426991,539.7084135978945,224.8324815726972
95.5328,95.5328,609.8005899119863,540.9245791804586,224.84078217687994
95.5395,95.5395,610.0050054900023,541.8232685258325,224.8420962505321
95.5463,95.5463,610.1524771446368,542.3380156465811,224.85757378466536
95.553,95.553,610.235869052041,542.462899312334,224.89958099789015
95.5598,95.5598,610.256864116014,542.6790060761535,224.97054461419464
95.5665,95.5665,610.2889609327417,543.1471182266664,225.06452111494718
95.5733,95.5733,610.3598829118557,543.757639757025,225.1708325214691
95.58,95.58,610.4535271249381,544.4004533773159,225.27848012948948
95.5868,95.5868,610.5546652131111,544.9819141198672,225.38001141393642
95.5935,95.5935,610.6506185412085,545.4361327883647,225.47372950547307
95.6003,95.6003,610.731836051859,545.7293949577332,225.5636739969308
95.607,95.607,610.7918606600734,545.858182491523,225.65760651743798
95.6138,95.6138,610.8271220795575,545.87387265735,225.76394280297563
95.6205,95.6205,610.8365603001067,545.999725148828,225.888854780675
95.6273,95.6273,610.8521287481908,546.1967295716115,226.03447785326688
95.634,95.634,610.8909095836353,546.4298287473182,226.19848327647887
95.6408,95.6408,610.9514068284622,546.6748495575332,226.37467409903562
95.6475,95.6475,611.0337150722623,546.9227042900424,226.55437187819695
95.6543,95.6543,611.1399650019631,547.1795091479416,226.7288047306141
95.661,95.661,611.273811924541,547.4620006865786,226.89201672475932
95.6678,95.6678,611.4394476448671,547.7893908221382,227.04261052693917
95.6745,95.6745,611.6405667973268,548.1748468034045,227.18301661708972
95.6813,95.6813,611.8800386146758,548.6200354861944,227.3166628695409
95.688,95.688,612.1600394949874,549.1137874957622,227.44475320573946
95.6948,95.6948,612.4803724942077,549.6334950612753,227.5643905172231
95.7015,95.7015,612.8330925981593,550.1473162518267,227.66841411193604
95.7083,95.7083,613.1948764785749,550.6163640565277,227.74628024682076
95.715,95.715,613.5231734878201,550.9981476586861,227.78599556797903
95.7218,95.7218,613.7644804692789,551.2529742317266,227.79414632210984
95.7285,95.7285,613.8768263892572,551.3517308875122,227.8528208225097
95.7353,95.7353,613.8986365304514,551.4227198259721,227.95517550535936
95.742,95.742,614.0125780474855,551.6615923987393,228.08777600268763
95.7488,95.7488,614.1401834738581,552.0534318190084,228.23754897593136
95.7555,95.7555,614.1893908052184,552.5730464490996,228.39836405450043
95.7623,95.7623,614.301570660686,553.1879532824191,228.57398389424924
95.769,95.769,614.632644773296,553.8620096904244,228.77667167699346
95.7758,95.7758,615.2059840712825,554.5593326211944,229.02253180615668
95.7825,95.7825,616.0098661763457,555.2478095087714,229.32577598732937
95.7893,95.7893,617.0030567234259,555.9015825678173,229.69412037287282
95.796,95.796,618.1247159868109,556.502040904187,230.12645078899072
95.8028,95.8028,619.306002751196,557.0367721294549,230.61270713493212
