Time,Time,Sum Acc X,Sum Acc Y,Sum Acc Z
70.1933,70.1933,0.0003927017574371183,0.0010307130592631837,0.0005435872540340372
70.2,70.2,0.0036392987616275033,0.008584123006366354,0.004740192163739752
70.2068,70.2068,0.016740729112112884,0.035348133543485885,0.02058579523841594
70.2135,70.2135,0.05161753243469322,0.09826207027910064,0.060419500351303
70.2203,70.2203,0.12141758344571209,0.21193572874249553,0.13675282212135909
70.227,70.227,0.23489953219771423,0.3842891684727021,0.2572206061533725
70.2338,70.2338,0.39306453250385864,0.6160769082548958,0.4218174191529603
70.2405,70.2405,0.5895468971709533,0.9029970204013081,0.623523347360664
70.2473,70.2473,0.8127747644374411,1.2391511949561405,0.8512068841364138
70.254,70.254,1.0477916241934593,1.6204789799788584,1.0930088894394632
70.2608,70.2608,1.2777187336981994,2.046530114784087,1.3390152378378077
70.2675,70.2675,1.4859600742027788,2.5198063921278804,1.5827861208592025
70.2743,70.2743,1.659383919873047,3.0434561532352054,1.821621430487713
70.281,70.281,1.7910647356974305,3.618786867099647,2.0555381527794276
70.2878,70.2878,1.8809149732466262,4.243392197478384,2.2853701977580627
70.2945,70.2945,1.934175614130304,4.9097224620030415,2.510839944045463
70.3013,70.3013,1.9591766408553144,5.604135012417309,2.729267347634486
70.308,70.308,1.9655207217535555,6.3074339691065875,2.935058195373939
70.3148,70.3148,1.968164769771211,6.997537192500127,3.119796707729317
70.3215,70.3215,1.9707989214420678,7.653569489992701,3.27268191798185
70.3283,70.3283,1.9762629985716755,8.260857018578992,3.381211225137267
70.335,70.335,1.9975090371631377,8.816199311777046,3.4327712103700807
70.3418,70.3418,2.043754711213362,9.330209338029867,3.4472229362961735
70.3485,70.3485,2.1291234062863844,9.823982606686608,3.527724529798725
70.3553,70.3553,2.274813525328913,10.32277143346902,3.6612017547498623
70.362,70.362,2.506621286043365,10.85132100585119,3.822407063970558
70.3688,70.3688,2.848090310133169,11.43158705918648,3.9803271132966347
70.3755,70.3755,3.3134529064935156,12.080057622586807,4.106011274689696
70.3823,70.3823,3.9033101185933643,12.802701822013356,4.1776154026468335
70.389,70.389,4.602209225673931,13.589326756054824,4.1823310054444995
70.3958,70.3958,5.376902105321698,14.4112860594093,4.247457028170454
70.4025,70.4025,6.176624380538995,15.224367042394858,4.374808598261656
70.4093,70.4093,6.937519655435588,15.975201452179112,4.546317409279872
70.416,70.416,7.591081324561854,16.608383262561627,4.735473213836068
70.4228,70.4228,8.073829254371194,17.07253637917812,4.911284096029697
70.4295,70.4295,8.334908261443747,17.32490343786109,5.0430789830910205
70.4363,70.4363,8.339906408018685,17.334609361885338,5.104697226063088
70.443,70.443,8.608606652448278,17.584516109757164,5.132206585211326
70.4498,70.4498,9.153481359310579,18.09629155294018,5.259420994687857
70.4565,70.4565,9.964021640708289,18.85804224688234,5.48853058653472
70.4633,70.4633,11.018691155755036,19.84582245380697,5.814130045551204
70.47,70.47,12.286819383214176,21.027511508370015,6.22466284146178
70.4768,70.4768,13.730968597143743,22.367720229594944,6.704424903374015
70.4835,70.4835,15.30996373323518,23.83219996258446,7.235877669482112
70.4903,70.4903,16.98165385240286,25.39079821793141,7.801715159389911
70.497,70.497,18.704348522516153,27.018567168435542,8.386102204437213
70.5038,70.5038,20.43726638979814,28.69463263128497,8.974871217117071
70.5105,70.5105,22.14096586878574,30.398956193180766,9.554722428247585
70.5173,70.5173,23.778878047043722,32.108353329564075,10.112372827241717
70.524,70.524,25.31838579493759,33.79522318240425,10.634410292179282
70.5308,70.5308,26.709151203871706,35.42613506286782,11.092050708705619
70.5375,70.5375,27.822767020118537,36.94058455305835,11.394876258202004
70.5443,70.5443,28.42631698884653,38.21449156351758,11.42159016357817
70.551,70.551,28.57361649090697,39.072797161010094,11.967017095462696
70.5578,70.5578,29.56024314915017,39.38180408426383,13.127644846964523
70.5645,70.5645,31.241842667030348,39.619447442402034,14.86298397962577
70.5713,70.5713,33.292479461593274,40.251850433281724,17.017115587937433
70.578,70.578,35.33000058864529,41.04454019065356,19.361931463627453
70.5848,70.5848,37.033257218885375,41.77001009073276,21.643645737130964
70.5915,70.5915,38.20850371123095,42.27184895461215,23.62651960560019
70.5983,70.5983,38.80323698348138,42.48680889895931,25.126683637057685
70.605,70.605,38.88185470489969,42.54026265723733,26.032192348576068
70.6118,70.6118,39.181973505140036,42.78915747491848,26.30933711273543
70.6185,70.6185,39.696574467675404,43.135248346407415,26.620809945775857
70.6253,70.6253,40.271171390650956,43.4801424369156,27.420588492337302
70.632,70.632,40.78376985111901,43.743725539534914,28.56724987560761
70.6388,70.6388,41.15450785336077,43.87417343484881,29.902020308131167
70.6455,70.6455,41.34522906970145,43.89837871621134,31.27273574060889
70.6523,70.6523,41.35271070716456,44.071555827413526,32.55406683811958
70.659,70.659,41.506027751816255,44.366579235494925,33.66103719470241
70.6658,70.6658,41.7812064712253,44.742618589464776,34.554018883639806
70.6725,70.6725,42.131147306146666,45.15417614382157,35.23540837898859
70.6793,70.6793,42.50801425577759,45.55956398630812,35.73999408075349
70.686,70.686,42.86924656834399,45.92694523393575,36.121941497491484
70.6928,70.6928,43.181461779184566,46.237126090161176,36.44141350619969
70.6995,70.6995,43.42213814955926,46.483171356271875,36.75309397816736
70.7063,70.7063,43.57961155875364,46.66755310975413,37.097945931133424
70.713,70.713,43.6520904646724,46.79807976952202,37.49891707676715
70.7198,70.7198,43.657804137306755,46.88384329619134,37.96067227884408
70.7265,70.7265,43.72753280711807,46.93197723438618,38.472625052495175
70.7333,70.7333,43.841091090094196,46.945554870739706,39.01394021383711
70.74,70.74,43.97393474093244,46.96852205007863,39.55900857255529
70.7468,70.7468,44.098699589067984,47.03519134213199,40.08213158138365
70.7535,70.7535,44.18632862862507,47.157270649404076,40.56077506558184
70.7603,70.7603,44.20700605406591,47.3497027859705,40.97741901615401
70.767,70.767,44.28266156801989,47.62855569775649,41.320355187615476
70.7738,70.7738,44.48166404574668,48.00828066268846,41.583860312714044
70.7805,70.7805,44.82573084303154,48.49903964168062,41.76806969581755
70.7873,70.7873,45.327642145790676,49.10505112729853,41.8785973003592
70.794,70.794,45.98819926228462,49.82455188463128,41.925570659505986
70.8008,70.8008,46.79646982850769,50.650280504610436,41.92982466300392
70.8075,70.8075,47.73358148747147,51.56856624554869,41.973835331678664
70.8143,70.8143,48.775373022695895,52.5583224720496,42.04793863940036
70.821,70.821,49.891845844033526,53.59295666997706,42.142713226612976
70.8278,70.8278,51.046799774812506,54.64473443989632,42.24790871865915
70.8345,70.8345,52.19906960894759,55.689219250595954,42.35268670749639
70.8413,70.8413,53.30454397761561,56.70851201878418,42.445819382223824
70.848,70.848,54.31965392735308,57.691210589068724,42.51577311191148
70.8548,70.8548,55.204044842993774,58.624219871772276,42.5490755481878
70.8615,70.8615,55.91493869181114,59.47244404428057,42.57381820718783
70.8683,70.8683,56.38920059793999,60.1517608286358,42.68885995443276
70.875,70.875,56.52475310479951,60.51775953100221,42.92469432340619
70.8818,70.8818,56.856174746068355,60.63647780335023,43.28605731773335
70.8885,70.8885,57.750509837829135,61.3653106813198,43.736096538913856
70.8953,70.8953,59.2086117868036,62.71811809216525,44.20208091115858
70.902,70.902,61.116019722970634,64.5763181222833,44.598869854689404
70.9088,70.9088,63.26578646868952,66.71262296404544,44.856250496227716
70.9155,70.9155,65.40455801030014,68.84343651650514,44.938906749489284
70.9223,70.9223,67.28614167268351,70.69239201481709,45.023370916157475
70.929,70.929,68.7198192366357,72.04847156850575,45.227885743170006
70.9358,70.9358,69.60447066368648,72.80569612682203,45.477612670555395
70.9425,70.9425,69.94251473867907,72.97616873522453,45.68709842161862
70.9493,70.9493,70.05458284086222,73.27754863626838,45.78007974702121
70.956,70.956,70.45616433002391,73.8704649012028,45.853305096153655
70.9628,70.9628,70.963693768074,74.55724116670534,46.10626375593268
70.9695,70.9695,71.4124295394032,75.16942701808102,46.51597011369297
70.9763,70.9763,71.6913360874033,75.60143313442484,47.02984262528393
70.983,70.983,71.76339437264822,75.8235495600106,47.57798730405593
70.9898,70.9898,71.86071312040549,75.87533457682672,48.088366259420795
70.9965,70.9965,72.0311782680868,75.90456093753787,48.50013973299839
71.0033,71.0033,72.14549401125585,75.90768843185685,48.77235623908231
71.01,71.01,72.21837671815655,76.0551072661407,48.88811161798982
71.0168,71.0168,72.58069085283735,76.43785744334188,48.922061245689015
71.0235,71.0235,73.28336239799295,77.11454038696583,49.08014793176025
71.0303,71.0303,74.316842317757,78.10617916812582,49.32619048653941
71.037,71.037,75.616478545327,79.39636870516728,49.62299815948549
71.0438,71.0438,77.07874284854057,80.93656936120773,49.94082748643366
71.0505,71.0505,78.58119997550882,82.65125844318288,50.26175702341969
71.0573,71.0573,79.99658967907462,84.43243480658731,50.57511740499857
71.064,71.064,81.1917323805322,86.12263647350001,50.86195323116819
71.0708,71.0708,82.01837785989935,87.50437346587286,51.08444331901611
71.0775,71.0775,82.32688098779397,88.3233766228736,51.20365830608912
71.0843,71.0843,82.63749707396985,88.35870108457495,51.21581053350245
71.091,71.091,83.56793458424538,89.20301352277353,51.26326130748995
71.0978,71.0978,85.00558526949783,90.83879848344223,51.29184953929309
71.1045,71.1045,86.75245459752965,93.00809189444198,51.3537382667239
71.1113,71.1113,88.57259482749686,95.36250583923952,51.54037151423564
71.118,71.118,90.24022153282411,97.55843294555388,51.83824708230659
71.1248,71.1248,91.57867141146366,99.3264362234459,52.19584978201273
71.1315,71.1315,92.48497168458023,100.50613379278646,52.54566691420163
71.1383,71.1383,92.93749881712496,101.05416112679737,52.82679557391545
71.145,71.145,92.98674358998102,101.07659926800953,52.999096246950124
71.1518,71.1518,93.24091521674625,101.53168139338933,53.04699221397082
71.1585,71.1585,93.67738916661915,102.24168234692456,53.118369190114606
71.1653,71.1653,94.17850605219368,103.0263610206496,53.290772863923976
71.172,71.172,94.64717436725118,103.73357511195415,53.540081951830025
71.1788,71.1788,95.01619409430734,104.25812795398635,53.8407764373616
71.1855,71.1855,95.25068716378237,104.54771710747166,54.16792652853874
71.1923,71.1923,95.34501409938882,104.59841630078925,54.498067207655836
71.199,71.199,95.37391491445419,104.75310472527488,54.809870379794134
71.2058,71.2058,95.49471048257226,105.0559525255488,55.084929377287544
71.2125,71.2125,95.66981130977356,105.43983207742296,55.30863155054659
71.2193,71.2193,95.86261258452106,105.83986924390867,55.470853048967086
71.226,71.226,96.04331681294039,106.2027794670552,55.566114663975874
71.2328,71.2328,96.19275631072637,106.49275016753327,55.5930691194227
71.2395,71.2395,96.30367523173383,106.69358408339461,55.632457260875064
71.2463,71.2463,96.37945278161789,106.80731504152168,55.733497817836785
71.253,71.253,96.43097914907067,106.85013843601511,55.88896766246075
71.2598,71.2598,96.47271550225794,106.85341547601998,56.08918035291039
71.2665,71.2665,96.51884357588196,106.87520891851828,56.322311688139166
71.2733,71.2733,96.58019634972769,106.89029129902207,56.57520719014003
71.28,71.28,96.66244426607338,106.90104305248224,56.834597261431725
71.2868,71.2868,96.76570672779513,106.94861205706609,57.0884341543228
71.2935,71.2935,96.88544055424869,107.03550056776665,57.327075990501115
71.3003,71.3003,97.01420197289325,107.15682908310467,57.54410975549291
71.307,71.307,97.14368387073999,107.30249874876773,57.736648768751266
71.3138,71.3138,97.26640728541136,107.4599338913028,57.905019024183
71.3205,71.3205,97.3766878184272,107.6168082099133,58.05191148877347
71.3273,71.3273,97.47089720111654,107.76319657467624,58.181281862765125
71.334,71.334,97.54735006676691,107.89286305020406,58.2973336817828
71.3408,71.3408,97.60616434633272,108.0036978493757,58.403800801283055
71.3475,71.3475,97.64922753647382,108.09743863024316,58.50361406988331
71.3543,71.3543,97.68016974998868,108.17880205918613,58.59891265800107
71.361,71.361,97.7041626322343,108.2542148530038,58.69122220659588
71.3678,71.3678,97.7274529642237,108.33049094402791,58.781576563171754
71.3745,71.3745,97.75678608689954,108.4137773637504,58.87046179448228
71.3813,71.3813,97.79892865669784,108.50879328980785,58.95769484130277
71.388,71.388,97.86018228185407,108.61800393881772,59.04227465106682
71.3948,71.3948,97.94508463693549,108.74086328338416,59.122255547520446
71.4015,71.4015,98.05421024047456,108.8745194843641,59.19525960653577
71.4083,71.4083,98.18384419866044,109.01606435324291,59.25953563422038
71.415,71.415,98.32849966540073,109.1639583480684,59.31457601769512
71.4218,71.4218,98.4827849939389,109.3177778387356,59.361047575581765
71.4285,71.4285,98.64156522574919,109.4776978282867,59.40019291784508
71.4353,71.4353,98.80030600486796,109.64452076495746,59.433084968271025
71.442,71.442,98.95577843909435,109.82023011921916,59.46039965228711
71.4488,71.4488,99.10653875895021,110.00873710269903,59.48285624657786
71.4555,71.4555,99.25298057715746,110.21594488839422,59.50210337945915
71.4623,71.4623,99.39659555069888,110.44841567805352,59.52164863025663
71.469,71.469,99.53842769428104,110.71097464568936,59.54715373058404
71.4758,71.4758,99.67751775163406,111.00428603336606,59.585674416876806
71.4825,71.4825,99.8102141968828,111.32336482162601,59.644241339386156
71.4893,71.4893,99.93056589535925,111.65752971757433,59.72854585298632
71.496,71.496,100.03144478874017,111.99163697245315,59.8421098452186
71.5028,71.5028,100.105805513538,112.30790970377325,59.985958891442706
71.5095,71.5095,100.14745816784026,112.58767348351802,60.15880720886235
71.5163,71.5163,100.15102169335795,112.81279032780395,60.357778904794934
71.523,71.523,100.19066691483341,112.9670283272342,60.57943863099765
71.5298,71.5298,100.27856534485464,113.0375663239222,60.82060215319321
71.5365,71.5365,100.41889350495465,113.05864635934375,61.07852932690273
71.5433,71.5433,100.6136010037669,113.1731708046235,61.35060544741673
71.55,71.55,100.86154624569247,113.37593301676863,61.633892541834314
71.5568,71.5568,101.1584952323922,113.65372202335811,61.92470767026998
71.5635,71.5635,101.49719705637719,113.98492562605489,62.21810092508058
71.5703,71.5703,101.86708979288817,114.34120165675816,62.507481981832875
71.577,71.577,102.25459342180133,114.69165398896608,62.78511892142168
71.5838,71.5838,102.64487328836637,115.00816716567556,63.043517176872236
71.5905,71.5905,103.02455446615036,115.27018571829318,63.27678815958446
71.5973,71.5973,103.3839897123974,115.46769146267522,63.4814907569213
71.604,71.604,103.7179372983742,115.60156261681193,63.65711749492487
71.6108,71.6108,104.02462737562165,115.6813679585601,63.80637883397894
71.6175,71.6175,104.30411678313327,115.72183536450108,63.93516877816518
71.6243,71.6243,104.55696434023,115.73957100983519,64.05211612741799
71.631,71.631,104.78392997709823,115.75077438674896,64.1677679341891
71.6378,71.6378,104.98669127277132,115.76982187785093,64.29345448745323
71.6445,71.6445,105.1688248366594,115.80838717456095,64.4398867496918
71.6513,71.6513,105.33620215536175,115.87486568246938,64.61565135316852
71.658,71.658,105.4965055019441,115.97402675368335,64.82585887123301
71.6648,71.6648,105.65813308830504,116.10698372250569,65.07116266867895
71.6715,71.6715,105.82895518045008,116.2716148970297,65.34727391087752
71.6783,71.6783,106.01531067752464,116.46354491816776,65.64508267421911
71.685,71.685,106.22143597664345,116.67765156865659,65.95145430305327
71.6918,71.6918,106.44938696215962,116.90963313329296,66.25054933005828
71.6985,71.6985,106.69943064967265,117.15687574483259,66.52535377736564
71.7053,71.7053,106.97057384621812,117.41833808477985,66.75923858036732
71.712,71.712,107.26069783875818,117.69398604393858,66.93749149074874
71.7188,71.7188,107.56607462992558,117.9843144893952,67.04859266455567
71.7255,71.7255,107.88046693282978,118.2894099880143,67.08478420502416
71.7323,71.7323,108.19367236433524,118.60446907779958,67.12939881496459
71.739,71.739,108.48634671365271,118.90758293861506,67.26634141680887
71.7458,71.7458,108.7167212251766,119.14314946706557,67.52085506697999
71.7525,71.7525,108.80615167563731,119.21342256084895,67.92340700091634
71.7593,71.7593,108.96824135637978,119.43815941727506,68.47930369305115
71.766,71.766,109.48886269378747,120.08625383984655,69.14000665212386
71.7728,71.7728,110.42199889295398,121.23358082593228,69.80357929155545
71.7795,71.7795,111.73585760582816,122.85881849528029,70.34697494475073
71.7863,71.7863,113.31363277132094,124.83239757981643,70.66985622768213
71.793,71.793,114.98182256303353,126.94406598722888,70.7261129866845
71.7998,71.7998,116.55052382818434,128.953202306182,70.92030581693213
71.8065,71.8065,117.85266467052129,130.6416831706156,71.29890206770777
71.8133,71.8133,118.77367865446834,131.85436847976064,71.76924620655758
71.82,71.82,119.26651076134779,132.5204664598187,72.2362571356536
71.8268,71.8268,119.35042218590843,132.65575938095452,72.6208955613582
71.8335,71.8335,119.60430299109522,132.9627367333828,72.87058556868044
71.8403,71.8403,120.09407308677469,133.5757783326943,72.96213489172996
71.847,71.847,120.70804612824756,134.34087150419256,73.02523750738759
71.8538,71.8538,121.34199973290025,135.11394247527457,73.21877723240708
71.8605,71.8605,121.91185424364346,135.78116650540312,73.50509662875956
71.8673,71.8673,122.36150922275385,136.26952224783284,73.84057323978973
71.874,71.874,122.66536318173742,136.548305054991,74.18254617059672
71.8808,71.8808,122.82569491328974,136.62402321580518,74.49506802655607
71.8875,71.8875,122.8661529126646,136.7167214867581,74.75293475223947
71.8943,71.8943,122.90915536580091,136.92593480875988,74.94355474609317
71.901,71.901,122.9952899876119,137.19351835269973,75.06648266384892
71.9078,71.9078,123.08773484029633,137.46471928228735,75.1308998399037
71.9145,71.9145,123.15877762348796,137.69485351629422,75.15234571953876
71.9213,71.9213,123.19300284326346,137.8523875860242,75.1548164853726
71.928,71.928,123.20023299061098,137.920565194519,75.16211769401214
71.9348,71.9348,123.24666425668063,137.9418705658659,75.16483212496082
71.9415,71.9415,123.32461186481855,138.03668077414446,75.18583745274063
71.9483,71.9483,123.42205419156116,138.17801415746925,75.22759607919429
71.955,71.955,123.52581003481473,138.33548440835108,75.28912057130833
71.9618,71.9618,123.62465968494764,138.48221043993175,75.36809496245952
71.9685,71.9685,123.71142812464024,138.59924503689055,75.46161095808178
71.9753,71.9753,123.7843011546316,138.6772551705523,75.5657734234498
71.982,71.982,123.84689407349,138.71604726460362,75.67521180061807
71.9888,71.9888,123.90687687503505,138.72252139302725,75.78316964675084
71.9955,71.9955,123.97366014611353,138.737314284247,75.88210504548958
72.0023,72.0023,124.05584347690092,138.76120000610516,75.96441864031702
72.009,72.009,124.15903172722179,138.78345295738188,76.02318157106754
72.0158,72.0158,124.28443628337953,138.7966563397396,76.05288057492746
72.0225,72.0225,124.42842177181322,138.7977101093213,76.05564144537932
72.0293,72.0293,124.58296572332726,138.8074560497939,76.09153911778907
72.036,72.036,124.73685222853416,138.82282227949608,76.15810883203156
72.0428,72.0428,124.87731817151813,138.83592826657568,76.249649503654
72.0495,72.0495,124.99186350869964,138.8375354895745,76.35756463834956
72.0563,72.0563,125.06995807192041,138.856660631582,76.4711287347944
72.063,72.063,125.10435783194036,138.90442215910616,76.57858082224651
72.0698,72.0698,125.11693926971891,138.9861364094895,76.6684268382303
72.0765,72.0765,125.17571721129326,139.10337284645362,76.73085487110491
72.0833,72.0833,125.27582083155326,139.25296766383173,76.75912565226164
72.09,72.09,125.40811089506681,139.42638448332787,76.76754741621663
72.0968,72.0968,125.55895340057512,139.60950925353916,76.81034258612958
72.1035,72.1035,125.71016107051864,139.7828554248548,76.88028254473653
72.1103,72.1103,125.83940582552209,139.92235103409504,76.96579957066993
72.117,72.117,125.92147103879114,140.0009967446253,77.05213355772044
72.1238,72.1238,125.93036607242628,140.0105782850888,77.12290707146984
72.1305,72.1305,126.01895028546055,140.13308818985527,77.1619212396189
72.1373,72.1373,126.22547199094677,140.38759695985578,77.16884505710075
72.144,72.144,126.56476380722019,140.78519562057778,77.23207548237083
72.1508,72.1508,127.04422858279207,141.32755309266835,77.35659508327049
72.1575,72.1575,127.66168497362484,142.00646062036841,77.5410035703721
72.1643,72.1643,128.40314015438653,142.8041899631081,77.77732362365998
72.171,72.171,129.2414147144128,143.69451248647582,78.05142162345048
72.1778,72.1778,130.13687282429794,144.64448634840235,78.34389597962596
72.1845,72.1845,131.04102034611222,145.61706119858337,78.63155106478585
72.1913,72.1913,131.90261600678593,146.5740416161316,78.88958250096717
72.198,72.198,132.67403939451236,147.4768464628281,79.09309602670875
72.2048,72.2048,133.3113600760004,148.28048174044818,79.21425837205064
72.2115,72.2115,133.76244884380841,148.92155307249814,79.21784079499551
72.2183,72.2183,133.9535453126776,149.31051315951044,79.36614902176399
72.225,72.225,134.11067146557104,149.34020788358208,79.6750557398533
72.2318,72.2318,134.68475654496837,149.76425505883498,80.10862458045925
72.2385,72.2385,135.6834495723303,150.6793788836104,80.59214719562706
72.2453,72.2453,137.03051606923736,152.02873029931945,81.03671080169573
72.252,72.252,138.57540003499736,153.65692974548202,81.36671014977262
72.2588,72.2588,140.12936534475122,155.34812483346005,81.54110513809688
72.2655,72.2655,141.51168513179863,156.88828321100715,81.56319738502373
72.2723,72.2723,142.59052596745852,158.1205018639213,81.65046654112801
72.279,72.279,143.30852369335713,158.97317163361356,81.78055232861291
72.2858,72.2858,143.68585716212286,159.45716226941857,81.88353695193669
72.2925,72.2925,143.79754651307442,159.6399508121816,81.90486421792608
72.2993,72.2993,143.8600696652017,159.66888757428308,81.99193341032658
72.306,72.306,144.02386940194407,159.82883353551165,82.18331589197709
72.3128,72.3128,144.25605004358349,160.0683892662112,82.44873189513456
72.3195,72.3195,144.57136991302679,160.37431504112587,82.74034203646264
72.3263,72.3263,145.02380154097548,160.76963632900183,83.00349024448218
72.333,72.333,145.68237044355143,161.3033227827828,83.18765750729008
72.3398,72.3398,146.600578148277,162.0347000638863,83.25521723837552
72.3465,72.3465,147.79303709644017,163.01604586815137,83.32419861036665
72.3533,72.3533,149.22777285043662,164.27690125619642,83.53156346748351
72.36,72.36,150.83322096557185,165.81343776590145,83.8637859915379
72.3668,72.3668,152.51338826590072,167.58214139501914,84.29474182611527
72.3735,72.3735,154.16158455446433,169.4913523978525,84.7829124427313
72.3803,72.3803,155.66229242887954,171.3875784394952,85.26326781666106
72.387,72.387,156.87904203202177,173.04638560951292,85.65058909033785
72.3938,72.3938,157.64513820087723,174.19288577546152,85.86715159621778
72.4005,72.4005,157.79079825585197,174.57150063293986,85.87998715416617
72.4073,72.4073,158.37101332806924,175.1028319636756,86.03921617233527
72.414,72.414,159.66039571169668,176.51041754814338,86.28452942190415
72.4208,72.4208,161.50978098766205,178.5844300562832,86.50836905838767
72.4275,72.4275,163.66717082908121,180.99141075337198,86.6201546513469
72.4343,72.4343,165.8306627898984,183.35655837249837,86.66489805992344
72.441,72.441,167.71105182126283,185.34888832054972,86.85537630194786
72.4478,72.4478,169.0888009023712,186.7439455345454,87.13698250213399
72.4545,72.4545,169.851842685808,187.45071829808413,87.4351974706529
72.4613,72.4613,170.00555004074025,187.50503353831684,87.68040519624608
72.468,72.468,170.35554701385104,187.96911570744857,87.82351880819716
72.4748,72.4748,171.03847002483877,188.75832096319448,87.84005028828341
72.4815,72.4815,171.86047328640277,189.66192513088126,87.95245866960205
72.4883,72.4883,172.64383552186138,190.49077637289417,88.17839785797666
72.495,72.495,173.25431679021543,191.10745924033606,88.49025551814556
72.5018,72.5018,173.61305015758384,191.44090914468282,88.85508526152361
72.5085,72.5085,173.6967488123435,191.4819093302758,89.24107230383727
72.5153,72.5153,173.8640187102834,191.70051521332442,89.62187700934732
72.522,72.522,174.22645911951827,192.12796114739217,89.97833221904331
72.5288,72.5288,174.7129050650152,192.71290428012284,90.29657987430848
72.5355,72.5355,175.24601508821544,193.40952764677502,90.5633835493338
72.5423,72.5423,175.74455852848828,194.17517620240432,90.76293786378835
72.549,72.549,176.1241373180712,194.96578659011337,90.87831083803385
72.5558,72.5558,176.30051980720052,195.7346944152157,90.89592038051522
72.5625,72.5625,176.40220851805037,196.43690820002067,90.982231745314
72.5693,72.5693,176.83073354656128,197.03649659074168,91.16917821533168
72.576,72.576,177.5900889528204,197.5122285840504,91.44400579197656
72.5828,72.5828,178.63119269559715,197.858295897557,91.78634341550467
72.5895,72.5895,179.86102629693465,198.0805595100298,92.17163218563559
72.5963,72.5963,181.16409834542392,198.1906979908956,92.57497465495373
72.603,72.603,182.42521407044075,198.20047123889438,92.97408222912298
72.6098,72.6098,183.5460601986722,198.28353630678097,93.35070678416011
72.6165,72.6165,184.4540565333616,198.45840420753208,93.6906987196345
72.6233,72.6233,185.1049938438765,198.7304482322686,93.98326544368254
72.63,72.63,185.4814181866223,199.10919231701496,94.22012136576544
72.6368,72.6368,185.58807322471188,199.6048476328478,94.39490567450054
72.6435,72.6435,185.7308543621625,200.22507927743644,94.5027263887902
72.6503,72.6503,186.09442223775073,200.97286345905493,94.53961779384542
72.657,72.657,186.64804072391223,201.84545696125596,94.5772458309181
72.6638,72.6638,187.36301090665617,202.83424296674895,94.69294415584969
72.6705,72.6705,188.21451997782248,203.92534103792715,94.89010354304438
72.6773,72.6773,189.18159617732937,205.1009796412411,95.1711485416346
72.684,72.684,190.24582718980892,206.34140183377863,95.53605517174216
72.6908,72.6908,191.38962277969145,207.62658077025299,95.9806407942249
72.6975,72.6975,192.59473519046105,208.9369461349088,96.49537931121684
72.7043,72.7043,193.84144012705917,210.25294750374192,97.06541787976327
72.711,72.711,195.108314311813,211.55400916020523,97.67195558948616
72.7178,72.7178,196.37222117454542,212.81765877188153,98.29447831440183
72.7245,72.7245,197.6083152726173,214.01933373873482,98.91312835723274
72.7313,72.7313,198.79036946696195,215.1330537158076,99.51072770784506
72.738,72.738,199.8916255385999,216.13303209314844,100.07413022288881
72.7448,72.7448,200.88576984125183,216.99598325589125,100.59469191944937
72.7515,72.7515,201.74786828604857,217.70345582428652,101.06793991723173
72.7583,72.7583,202.4558641399087,218.24357838064935,101.49258818506134
72.765,72.765,202.9928841571016,218.61184813531023,101.86890686673952
72.7718,72.7718,203.3483848090775,218.8114496038944,102.1962401100644
72.7785,72.7785,203.51112363737232,218.8529164061356,102.46641157706433
72.7853,72.7853,203.58516016806365,218.95874049306593,102.64317583833626
72.792,72.792,204.02969381956612,219.22512268486057,102.65396264879068
72.7988,72.7988,205.07958456096182,219.72051633888393,102.99681214925153
72.8055,72.8055,206.95719111731543,220.55385133582524,103.7918716320208
72.8123,72.8123,209.69145168866586,221.7919661311886,105.05182573913898
72.819,72.819,213.02962378397814,223.38553840696372,106.66016884936403
72.8258,72.8258,216.5104637869996,225.17904707867885,108.40508299387501
72.8325,72.8325,219.62477504549906,226.9815471523755,110.0354317675937
72.8393,72.8393,221.96320228528094,228.63512968230776,111.3193620669793
72.846,72.846,223.301478849515,230.04888545532282,112.09017882188105
72.8528,72.8528,223.6156363176995,231.19845927455506,112.27258656115177
72.8595,72.8595,224.18618813454214,232.1061633978822,112.65578227375248
72.8663,72.8663,225.3997283091175,232.81738521265228,113.49653289443182
72.873,72.873,226.9745537248763,233.38168055696815,114.62929867837981
72.8798,72.8798,228.6399424909185,233.84006841027974,115.86602837594953
72.8865,72.8865,230.17143133161025,234.21796524802747,117.0320017954229
72.8933,72.8933,231.4099674733466,234.5237159235087,117.99473718475824
72.9,72.9,232.26635869821862,234.75197443778745,118.67924433663053
72.9068,72.9068,232.71480791511752,234.88969813150982,119.06884195634555
72.9135,72.9135,232.7801927563317,234.92235589410973,119.19509799577764
72.9203,72.9203,233.03804450234674,235.00598135633464,119.26837636425728
72.927,72.927,233.54083462634716,235.2110594564346,119.46242396785637
72.9338,72.9338,234.20653712838535,235.53572274405195,119.69874259881892
72.9405,72.9405,234.96013707345298,235.97111497397213,119.91048564511686
72.9473,72.9473,235.73957550710224,236.50211719905369,120.04935291739773
72.954,72.954,236.49770777606818,237.1087938551527,120.0881002726132
72.9608,72.9608,237.20158817886997,237.76853190588307,120.15677220592376
72.9675,72.9675,237.83005326752163,238.45821633800614,120.32380780973949
72.9743,72.9743,238.37023950418092,239.1538932101961,120.56934248156672
72.981,72.981,238.8106415037829,239.82426784674348,120.8708543624061
72.9878,72.9878,239.12634178563906,240.4189006023384,121.21184617358237
72.9945,72.9945,239.26220004875748,240.85889687615563,121.5841303648442
73.0013,73.0013,239.39220679359437,241.04080746685298,121.98064746361237
73.008,73.008,239.87644746723723,241.22117390633227,122.38451028968194
73.0148,73.0148,240.7590167393431,241.83114366185637,122.76333851519476
73.0215,73.0215,242.0055578395467,242.86709828862746,123.07493757948392
73.0283,73.0283,243.50124684495984,244.23957277343015,123.28119750537428
73.035,73.035,245.07764203358224,245.78433511040026,123.36138629210244
73.0418,73.0418,246.55429146158346,247.29659890563147,123.40338206887363
73.0485,73.0485,247.77829522558378,248.57660819393755,123.53972543728513
73.0553,73.0553,248.64962066806928,249.47136896879752,123.72689634866784
73.062,73.062,249.13000581236355,249.9012536525821,123.91787720937984
73.0688,73.0688,249.23936102681964,249.93512122240412,124.07311789024138
73.0755,73.0755,249.43468045526842,250.3607263552448,124.16727406736065
73.0823,73.0823,249.8385699600123,251.0568924961785,124.19156931677402
73.089,73.089,250.3440866169773,251.8804949866453,124.2303813638665
73.0958,73.0958,250.85120208673797,252.69295499226078,124.31357528852925
73.1025,73.1025,251.28001583612232,253.38089890111732,124.41577486138972
73.1093,73.1093,251.5777782937492,253.8684428215602,124.51105912213502
73.116,73.116,251.72027322471484,254.1216558640512,124.57850574237244
73.1228,73.1228,251.73126381626656,254.147098194711,124.60594697100551
73.1295,73.1295,251.87275211627562,254.30887426439512,124.6203570914055
73.1363,73.1363,252.1066646935661,254.5948806003987,124.66859243308694
73.143,73.143,252.3872107397963,254.9348571189722,124.73481472673951
73.1498,73.1498,252.66990510945448,255.26637375286222,124.79781560584458
73.1565,73.1565,252.92093998500619,255.54662888228484,124.83272250466814
73.1633,73.1633,253.1217492555507,255.76003559961654,124.85193275602624
73.17,73.17,253.26441009493175,255.9210916775339,124.94668757613843
73.1768,73.1768,253.34019381651578,256.0707163958087,125.12583525009615
73.1835,73.1835,253.35333560377973,256.26533254643755,125.378676008944
73.1903,73.1903,253.49730745925754,256.5618165912032,125.67276074178146
73.197,73.197,253.82582298984525,257.00306924950337,125.96064698764195
73.2038,73.2038,254.3813710337726,257.6071663089918,126.19461664517623
73.2105,73.2105,255.17065384270109,258.3618110329418,126.34077337047309
73.2173,73.2173,256.1533213010984,259.22537094405897,126.38526654517938
73.224,73.224,257.24741249425864,260.13378238177023,126.4372515194558
73.2308,73.2308,258.3447525913971,261.0100003297589,126.56510622815567
73.2375,73.2375,259.3278364207986,261.7720751571607,126.73636584554592
73.2443,73.2443,260.0840048047501,262.3382618138578,126.91082515667715
73.251,73.251,260.51653560939707,262.63099931097287,127.04623312695934
73.2578,73.2578,260.55236907271336,262.6791927648279,127.10447410107675
73.2645,73.2645,260.9583554483263,263.1175611707564,127.1527179625659
73.2713,73.2713,261.8206528124936,263.9700573826637,127.32522121569662
73.278,73.278,263.1209936479261,265.2326469578213,127.62666109689862
73.2848,73.2848,264.8090028023168,266.874623232545,128.04829708178426
73.2915,73.2915,266.8079224520541,268.8415663390798,128.5694400073784
73.2983,73.2983,269.0244509866651,271.05875534510585,129.16044159365097
73.305,73.305,271.35925303736633,273.4353569475522,129.78599736469096
73.3118,73.3118,273.7150303778392,275.86976387635474,130.40762397688397
73.3185,73.3185,276.0003440300604,278.25608999102656,130.9852071034052
73.3253,73.3253,278.1165745278809,280.49103468518433,131.4685704785989
73.332,73.332,279.9074194619336,282.470783470677,131.7632753768453
73.3388,73.3388,281.1054603830212,284.0656835566925,131.82550611517158
73.3455,73.3455,281.37504342280477,285.10343916297705,132.4447143211418
73.3523,73.3523,282.2729902944634,285.41712216656293,133.7513021485541
73.359,73.359,284.31848305325775,285.89280162963803,135.73420032421123
73.3658,73.3658,287.20700291501885,287.06413954017637,138.2400209901716
73.3725,73.3725,290.46036869914684,288.7062955952434,141.01752440182642
73.3793,73.3793,293.57995075868143,290.54293215825777,143.77562341612773
73.386,73.386,296.16688414487396,292.32247343952747,146.2395471752414
73.3928,73.3928,297.98371991136946,293.8636127708908,148.19576169609374
73.3995,73.3995,298.9615180147859,295.0699730262415,149.51687967549628
73.4063,73.4063,299.1700096913414,295.92277312461954,150.16602469492963
73.413,73.413,299.56887308031764,296.46075160036764,150.18820999387935
73.4198,73.4198,300.36903894487637,296.755790231294,150.68239375793897
73.4265,73.4265,301.36176978959156,296.8910988217418,151.5396482221964
73.4333,73.4333,302.3659425629028,296.945573586675,152.59089751408146
73.44,73.44,303.2458092574578,296.98381272396796,153.6777059639669
73.4468,73.4468,303.91705331118385,297.0497882057842,154.67371197975183
73.4535,73.4535,304.3433123144136,297.1640416101668,155.49732546309815
73.4603,73.4603,304.52667782904507,297.3252900048075,156.11421537101455
73.467,73.467,304.5573079819201,297.51586655406993,156.53127332280633
73.4738,73.4738,304.757449058196,297.70903594541954,156.78522817519305
73.4805,73.4805,305.07691276759095,297.8761758991943,156.92907893994087
73.4873,73.4873,305.4681012875762,297.9924597781057,157.01905405879918
73.494,73.494,305.8920617569069,298.0404787996238,157.10410589471627
73.5008,73.5008,306.32150618586724,298.0691663804699,157.219151922067
73.5075,73.5075,306.74090117043056,298.17444509180615,157.38237687239695
73.5143,73.5143,307.1448112111745,298.3496890884154,157.59603072003293
73.521,73.521,307.5357753439092,298.584520331315,157.84974952138896
73.5278,73.5278,307.92208454429516,298.86713094773535,158.12544602102707
73.5345,73.5345,308.3150665158057,299.1857998911284,158.40269765892185
73.5413,73.5413,308.7258275568125,299.530029200939,158.6633582317784
73.548,73.548,309.16222985521546,299.8915008021402,158.89451306720105
73.5548,73.5548,309.62694935260856,300.26450279407817,159.08979842159368
73.5615,73.5615,310.1168032849677,300.6455860943005,159.24949557082124
73.5683,73.5683,310.6231044431664,301.03270763252135,159.37948396386392
73.575,73.575,311.13273270821344,301.4243619261189,159.48902490008442
73.5818,73.5818,311.6296739895604,301.8191452368005,159.5877909888688
73.5885,73.5885,312.0970306390482,302.21594599968336,159.68308567373785
73.5953,73.5953,312.51954181927266,302.6145202282344,159.7783749095276
73.602,73.602,312.8862042260758,303.0158018943943,159.8737377040585
73.6088,73.6088,313.1923475424199,303.42118100316384,159.9678434382952
73.6155,73.6155,313.4406094601261,303.8290409564304,160.06129760855032
73.6223,73.6223,313.63638304715334,304.22582388416856,160.16342855706546
73.629,73.629,313.7699704207866,304.5730634195817,160.30188980151812
73.6358,73.6358,313.7932257286849,304.7981996094284,160.52332150944505
73.6425,73.6425,313.96908538114576,304.7990924209052,160.8728523593815
73.6493,73.6493,314.44218714463136,305.14059253800696,161.36183332765182
73.656,73.656,315.2731626212147,305.9083949809391,161.94944910173578
73.6628,73.6628,316.4500407679242,307.114947785395,162.55203678667394
73.6695,73.6695,317.8822431695474,308.6759896053275,163.0719257507914
73.6763,73.6763,319.4249149887345,310.42549290419754,163.42911440287463
73.683,73.683,320.9195681697039,312.1623857406226,163.5831191480158
73.6898,73.6898,322.2324577123956,313.70482497519066,163.62671087019228
73.6965,73.6965,323.2800347214964,314.9304136503796,163.8233515752221
73.7033,73.7033,324.03845385014165,315.79185461713587,164.10459332076434
73.71,73.71,324.53557309708066,316.3072419390936,164.39580309444824
73.7168,73.7168,324.82756151421904,316.53473709971166,164.63291024822684
73.7235,73.7235,324.9703357914802,316.5460730631289,164.77463182906587
73.7303,73.7303,324.99898060003954,316.6855969505439,164.80728829108347
73.737,73.737,325.07758956671023,316.9302655956818,164.87153388700273
73.7438,73.7438,325.2823154670841,317.2602347498247,164.99974169115168
73.7505,73.7505,325.64853745956793,317.68074927435237,165.1452262380645
73.7573,73.7573,326.2139355239345,318.21612391613724,165.25653132215714
73.764,73.764,327.00365027685154,318.9009388006593,165.28677036075766
73.7708,73.7708,328.0198784856136,319.7699128875265,165.37250229484556
73.7775,73.7775,329.2382733781099,320.8474074707241,165.59264748148618
73.7843,73.7843,330.6106104331687,322.1382821408562,165.94743495373487
73.791,73.791,332.0716886226989,323.62285815437997,166.41935409831828
73.7978,73.7978,333.548257567409,325.2576574413396,166.9755251002854
73.8045,73.8045,334.9682308480139,326.98033332061567,167.57174993483522
73.8113,73.8113,336.2670670105655,328.71173335305815,168.1545561636212
73.818,73.818,337.38435724813047,330.34651467712456,168.65354513886894
73.8248,73.8248,338.24682230028,331.7364943130626,168.97048713595754
73.8315,73.8315,338.7470300914442,332.6845905144521,168.99305054115584
73.8383,73.8383,338.75196232848504,332.9694456449944,169.3415089340197
73.845,73.845,339.3959123156172,333.5282227484029,170.04654889369098
73.8518,73.8518,340.7267984812892,334.986268704247,170.9840133563172
73.8585,73.8585,342.65436482231235,337.2219604311501,171.9544317334059
73.8653,73.8653,344.9594583055789,339.95118442756,172.7508275755517
73.872,73.872,347.35014031756407,342.8014100191093,173.223689586603
73.8788,73.8788,349.53172250494896,345.4034308890062,173.31665156260343
73.8855,73.8855,351.26676893381455,347.4639364031746,173.56817954618063
73.8923,73.8923,352.4128649179635,348.8075155523589,174.0669179023501
73.899,73.899,352.93439602711885,349.3904104309805,174.69347942505027
73.9058,73.9058,352.97789106324853,349.4912956197597,175.33788826473358
73.9125,73.9125,353.4596695199575,350.10978519409645,175.91507905851327
73.9193,73.9193,354.22006215815077,351.03398476111676,176.3678983916139
73.926,73.926,355.09779367638225,352.05084832872456,176.66493124391397
73.9328,73.9328,355.9535298824647,352.9820665957073,176.79763247479698
73.9395,73.9395,356.68460607201575,353.70564431776876,176.81744982222466
73.9463,73.9463,357.23090331890154,354.16182014170994,176.96062065606995
73.953,73.953,357.5725038485316,354.34599700414714,177.18584453015538
73.9598,73.9598,357.72153711231863,354.39774954408614,177.4473970577714
73.9665,73.9665,357.7312964411815,354.624818991676,177.70290301165895
73.9733,73.9733,357.8544028651242,354.95636291447636,177.91850390795798
73.98,73.98,358.0422603445511,355.32299100597015,178.0709572817161
73.9868,73.9868,358.24990919771244,355.66576568596065,178.14777568747175
73.9935,73.9935,358.44078805677043,355.9420038871786,178.14909517130232
74.0003,74.0003,358.58927895237247,356.1274681702744,178.22236949939273
74.007,74.007,358.68125094398204,356.21542641672244,178.35460177375006
74.0138,74.0138,358.7131666783373,356.2172039066735,178.5284898932485
74.0205,74.0205,358.7360580022439,356.29056489618625,178.72539000892357
74.0273,74.0273,358.80216190562555,356.41156796109334,178.92825679900753
74.034,74.034,358.8963989937703,356.55498981778413,179.12393347757177
74.0408,74.0408,359.00313496132395,356.69818692244974,179.3043135526441
74.0475,74.0475,359.10873313559694,356.82385294190783,179.46629778264148
74.0543,74.0543,359.20334614636573,356.9214292362567,179.61081509762332
74.061,74.061,359.28177475697225,356.98718514479003,179.74133118362323
74.0678,74.0678,359.34346629783505,357.0232297036423,179.8622921939834
74.0745,74.0745,359.39176531083655,357.03583528131463,179.97781550699176
74.0813,74.0813,359.4324750093852,357.0382317451279,180.09075014101552
74.088,74.088,359.4719635332324,357.04700497756244,180.2021586695648
74.0948,74.0948,359.5152768878483,357.0549775469956,180.31126731175098
74.1015,74.1015,359.5647478081112,357.05748287837326,180.4158630812544
74.1083,74.1083,359.61945709509814,357.06222061062647,180.5130089113637
74.115,74.115,359.6756024903306,357.07334929392795,180.5998671952027
74.1218,74.1218,359.7274738109604,357.08812680003797,180.67439304233645
74.1285,74.1285,359.7686376747252,357.10290206429147,180.73571439644968
74.1353,74.1353,359.79300261101906,357.1141208963593,180.78409183734573
74.142,74.142,359.79552741671375,357.11920867367485,180.82047940695554
74.1488,74.1488,359.81851784340444,357.121177559779,180.84590307071744
74.1555,74.1555,359.868930454505,357.12909668703077,180.86103356489792
74.1623,74.1623,359.94556629121666,357.1401098848466,180.86631325809563
74.169,74.169,360.04273686823683,357.1509962253282,180.87024599110444
74.1758,74.1758,360.1511462623316,357.15989163871285,180.88239411833686
74.1825,74.1825,360.260633798391,357.1669902640756,180.9014564438002
74.1893,74.1893,360.3623878928513,357.17429338223803,180.92600372977822
74.196,74.196,360.45017156355436,357.1853393323497,180.95474819669178
74.2028,74.2028,360.52126967142095,357.2050619316838,180.98641426590157
74.2095,74.2095,360.5770663759702,357.2393467127806,181.0189425214286
74.2163,74.2163,360.62281684503756,357.2941608503485,181.04848415570302
74.223,74.223,360.66651053684626,357.3744502186018,181.0689631511639
74.2298,74.2298,360.71707813792744,357.48289098038526,181.07267815788094
74.2365,74.2365,360.7823008418988,357.6185420109791,181.09365882657576
74.2433,74.2433,360.8667060720128,357.77575413710844,181.14593921336504
74.25,74.25,360.9699241895361,357.94392003364607,181.23347840239262
74.2568,74.2568,361.08616695617303,358.10838917904454,181.35670846051886
74.2635,74.2635,361.2049623627778,358.25230561659447,181.51238266622846
74.2703,74.2703,361.3126087104199,358.35883690618954,181.6942935074947
74.277,74.277,361.39400671447623,358.4133779073882,181.89446699990535
74.2838,74.2838,361.4348505327712,358.421377295306,182.10429777361915
74.2905,74.2905,361.4459439218556,358.4972930148134,182.3154722317628
74.2973,74.2973,361.5159721249487,358.6410192977118,182.52073420911145
74.304,74.304,361.6468193508105,358.84731247768724,182.71440291377263
74.3108,74.3108,361.83490168717435,359.106589923797,182.8924358064173
74.3175,74.3175,362.071079840711,359.406238010007,183.05196729171746
74.3243,74.3243,362.341903635573,359.73207546449913,183.1908376451055
74.331,74.331,362.632603133456,360.06866207850726,183.30756789131414
74.3378,74.3378,362.9289740376005,360.3984338092709,183.40114047449953
74.3445,74.3445,363.21692347665754,360.7017409362672,183.47068163022985
74.3513,74.3513,363.4828859049101,360.9588479031507,183.51616311215443
74.358,74.358,363.7162480026855,361.1533026973237,183.53943565366447
74.3648,74.3648,363.91163716396585,361.2759322497741,183.54430531978596
74.3715,74.3715,364.0698222495548,361.3280614384117,183.55268761679366
74.3783,74.3783,364.1970308972627,361.33392227765654,183.56857850404586
74.385,74.385,364.3026946650432,361.3762437064924,183.58626576253093
74.3918,74.3918,364.3965655795547,361.4285096368684,183.60012755085708
74.3985,74.3985,364.4867446479141,361.46404225331685,183.60416341708068
74.4053,74.4053,364.5791205056401,361.46766190836786,183.61661893974608
74.412,74.412,364.67767314090054,361.5257721222484,183.6525808897744
74.4188,74.4188,364.7850888153173,361.6457288480306,183.71865063243007
74.4255,74.4255,364.90336186292444,361.82750492375317,183.8200049569374
74.4323,74.4323,365.03436108705154,362.0653310044601,183.9592950258161
74.439,74.439,365.1805338412899,362.35000017931264,184.1356486743293
74.4458,74.4458,365.3457274765353,362.67147799986947,184.34397741941424
74.4525,74.4525,365.5357681247329,363.02143928084797,184.57484599184852
74.4593,74.4593,365.75820851545666,363.3951383437179,184.8151258993428
74.466,74.466,366.0207494231609,363.791829293845,185.04935557749698
74.4728,74.4728,366.32854039676835,364.2133783884608,185.26144600869492
74.4795,74.4795,366.6815268341799,364.66174220716096,185.43637373372675
74.4863,74.4863,367.0731468414921,365.1366844034524,185.56151882297502
74.493,74.493,367.49073185906497,365.63481016121267,185.62726292879748
74.4998,74.4998,367.9168944288251,366.1497158314449,185.62794609853412
74.5065,74.5065,368.3299074746396,366.6697004949575,185.70247781884763
74.5133,74.5133,368.69833356676656,367.16731823851455,185.8670443467082
74.52,74.52,368.96654386232564,367.58325180147426,186.1536956046643
74.5268,74.5268,369.0425649740375,367.81863717208466,186.59706989554687
74.5335,74.5335,369.27313806171423,367.8882905035024,187.19820145671545
74.5403,74.5403,369.9026262054463,368.37508141224583,187.896436626839
74.547,74.547,370.9544439120859,369.3301693893384,188.57920403650292
74.5538,74.5538,372.3642569259873,370.7115332204676,189.12368713896979
74.5605,74.5605,373.9940993324068,372.38538161384395,189.440973859867
74.5673,74.5673,375.6662725118792,374.1563069781121,189.5004076573258
74.574,74.574,377.2019770785184,375.8113960760511,189.6703723373505
74.5808,74.5808,378.4543579311566,377.16434581480524,189.99748831398682
74.5875,74.5875,379.33059169022425,378.08858499182094,190.38796236599867
74.5943,74.5943,379.80073991819256,378.5337487557807,190.7483950729195
74.601,74.601,379.8934735896237,378.54200645393064,191.00289403576792
74.6078,74.6078,380.1052686340357,378.91600697054525,191.1031727023144
74.6145,74.6145,380.5237567659967,379.5294754819338,191.17490176742277
74.6213,74.6213,381.04509699535134,380.24452437828666,191.40877211105877
74.628,74.628,381.575157326865,380.93603441259484,191.77358179751909
74.6348,74.6348,382.04103812051596,381.50884630934314,192.22466106521847
74.6415,74.6415,382.3975121029521,381.9058777163737,192.71202205226567
74.6483,74.6483,382.62763154185086,382.1080143603849,193.1878299058727
74.655,74.655,382.7381520166299,382.1281755167188,193.61246828825517
74.6618,74.6618,382.75175230980346,382.2542764159211,193.9586722720735
74.6685,74.6685,382.8050118449111,382.4785319006261,194.21325935445643
74.6753,74.6753,382.89560356106807,382.7498071546548,194.37681810726428
74.682,74.682,383.00047046519177,383.02066664908034,194.46194633284827
74.6888,74.6888,383.1034281057981,383.2524137952451,194.48886000810433
74.6955,74.6955,383.1913832075666,383.42002999527824,194.4988269343712
74.7023,74.7023,383.25418828980264,383.5153862086499,194.52774996961244
74.709,74.709,383.2881960164452,383.5461917573905,194.56212638556462
74.7158,74.7158,383.29684089592286,383.56143083979475,194.59206571198604
74.7225,74.7225,383.30587418496134,383.6001608184667,194.6099566080444
74.7293,74.7293,383.323838843773,383.6417999313301,194.61017462392152
74.736,74.736,383.34364931752737,383.67165569449264,194.6326210175011
74.7428,74.7428,383.3618312523633,383.6826644493698,194.67863693021536
74.7495,74.7495,383.3792364914376,383.69004297577385,194.7462415269357
74.7563,74.7563,383.40051600963164,383.709423334947,194.83020567628904
74.763,74.763,383.4326092240498,383.73104482323504,194.9228203314901
74.7698,74.7698,383.4826082741577,383.7447095337534,195.01520335136823
74.7765,74.7765,383.55553422065736,383.7467813510942,195.0987190220173
74.7833,74.7833,383.6526297357614,383.7677822867461,195.16611739519072
74.79,74.79,383.7705912107301,383.8055076079316,195.21231583554382
74.7968,74.7968,383.90197699561605,383.85316819921644,195.23486006023896
74.8035,74.8035,384.0366922994541,383.9014133167665,195.23570309699772
74.8103,74.8103,384.16399159730156,383.94071748994975,195.25724750807876
74.817,74.817,384.27431993975034,383.96335996251855,195.29503237358443
74.8238,74.8238,384.36057739707303,383.9646317237109,195.3436723662374
74.8305,74.8305,384.4186876720564,383.9859866770602,195.39768779354426
74.8373,74.8373,384.44753536495915,384.02794005658535,195.45210088795315
74.844,74.844,384.44851744749764,384.0857880221952,195.50275740597198
74.8508,74.8508,384.47200333985086,384.15302755116306,195.54646405200688
74.8575,74.8575,384.51500841548636,384.2223466336885,195.58098424797157
74.8643,74.8643,384.5715195359558,384.2866090840323,195.60491749272737
74.871,74.871,384.63502611136687,384.3396913608628,195.61757715253484
74.8778,74.8778,384.69904349401264,384.3770124607075,195.61897300349634
74.8845,74.8845,384.7574938320767,384.39570174517786,195.62807181077775
74.8913,74.8913,384.8049629396831,384.39691281421193,195.64611562181634
74.898,74.898,384.8368931778882,384.4179517233848,195.67090794929538
74.9048,74.9048,384.84978841077924,384.4577282398479,195.6999166973514
74.9115,74.9115,384.8580994095491,384.5144330418576,195.7306716783116
74.9183,74.9183,384.8881868354726,384.58574587765946,195.76110405976647
74.925,74.925,384.9388179257447,384.66897558500773,195.78973230312909
74.9318,74.9318,385.0068991458689,384.761182282935,195.81569050423676
74.9385,74.9385,385.0876045488233,384.859225991871,195.8386479179529
74.9453,74.9453,385.17470052072304,384.9596318991729,195.8586633969216
74.952,74.952,385.2610546493386,385.0583363036456,195.87604353159327
74.9588,74.9588,385.3392729199727,385.15056631147667,195.8913122837355
74.9655,74.9655,385.40233813668755,385.2310056530723,195.9053288026329
74.9723,74.9723,385.44410028484043,385.29418836168014,195.91946719467964
74.979,74.979,385.4595965616071,385.3350471550381,195.9356772755972
74.9858,74.9858,385.4738739829736,385.34960465859547,195.95626522864094
74.9925,74.9925,385.5197256435496,385.36336783753995,195.98339824837615
74.9993,74.9993,385.5968556209568,385.40438176505074,196.01835583672542
75.006,75.006,385.7017811102541,385.4672597268585,196.06052052047812
75.0128,75.0128,385.82602226469663,385.54161798403334,196.10645576694466
75.0195,75.0195,385.954925675415,385.6125152707252,196.1496877551116
75.0263,75.0263,386.0684750767062,385.6618952186328,196.1814043881196
75.033,75.033,386.1440660232401,385.67054364708275,196.1918256942411
75.0398,75.0398,386.1608627206498,385.72111168324983,196.21145603570972
75.0465,75.0465,386.217330705828,385.84720840015757,196.26668349990118
75.0533,75.0533,386.3542238856902,386.06077549818684,196.35903148259294
75.06,75.06,386.57482205792684,386.36559634742275,196.48683236775858
75.0668,75.0668,386.8815290193533,386.75474127835196,196.64598803221236
75.0735,75.0735,387.2768066851099,387.21211961103273,196.83032522081493
75.0803,75.0803,387.7640694257601,387.7174493632817,197.03214976460308
75.087,75.087,388.3480553051798,388.2527029080245,197.24268056894584
75.0938,75.0938,389.0333574687082,388.8077924149949,197.4525604548795
75.1005,75.1005,389.8212143527291,389.3831150486758,197.6530590421157
75.1073,75.1073,390.70514394780486,389.98855093058324,197.8376844105807
75.114,75.114,391.6671734617683,390.6405204110255,198.00348337226438
75.1208,75.1208,392.67726538003416,391.3586398140129,198.1514032323752
75.1275,75.1275,393.6966378775342,392.1621599724748,198.28536997987834
75.1343,75.1343,394.6831220388682,393.0647840291981,198.41014817617562
75.141,75.141,395.5941829082097,394.06320230810195,198.52455569306366
75.1478,75.1478,396.38212288886115,395.1133616050596,198.60592752623737
75.1545,75.1545,396.97787603666313,396.0990220384241,198.6120527279605
75.1613,75.1613,397.2680388637124,396.81860734465795,198.77350577149332
75.168,75.168,397.43955233762387,397.0252505810626,199.12900774994202
75.1748,75.1748,398.2135376477161,397.53249397313186,199.652565385312
75.1815,75.1815,399.6338851520934,398.8210821220171,200.24921542600356
75.1883,75.1883,401.6070741615817,400.79138536194205,200.78399138586863
75.195,75.195,403.9210034672971,403.2020409325118,201.12701163545808
75.2018,75.2018,406.30047459320645,405.7323605673548,201.19437770047128
75.2085,75.2085,408.470962089537,408.0561859983677,201.41782876499636
75.2153,75.2153,410.21044610960723,409.9074507304636,201.8794865787897
75.222,75.222,411.3824088369437,411.124721349695,202.47844299222507
75.2288,75.2288,411.95007186862205,411.6679480447609,203.09300877057748
75.2355,75.2355,411.9720112536277,411.72718772959166,203.60787837604155
75.2423,75.2423,412.36301550740654,412.23393815304144,203.93540704065168
75.249,75.249,412.99266093396466,412.9879321564182,204.02781230897972
75.2558,75.2558,413.6817798372181,413.7850223549119,204.1758521399548
75.2625,75.2625,414.27854622449877,414.45444281334653,204.53226458427054
75.2693,75.2693,414.67985849065144,414.88223986605533,205.0372474057294
75.276,75.276,414.83896533519004,415.01529172975654,205.61555072566566
75.2828,75.2828,414.91735951348267,415.18051571792154,206.18992999809538
75.2895,75.2895,415.1879537706442,415.6133764163659,206.69256198691366
75.2963,75.2963,415.5751250439798,416.25988920729947,207.0715405962306
75.303,75.303,415.9822641650853,417.0487389135647,207.29322826451443
75.3098,75.3098,416.3028349408606,417.89758432512735,207.3429463374836
75.3165,75.3165,416.4331714131869,418.72279505831204,207.46140831600778
75.3233,75.3233,416.58002187911575,419.4514687496471,207.72854654095903
75.33,75.33,417.0580106156168,420.0320887280199,208.11385322770218
75.3368,75.3368,417.8715786233891,420.4398924983797,208.58071084314196
75.3435,75.3435,418.9681306694382,420.6752751665724,209.0907628440607
75.3503,75.3503,420.2470068198196,420.7567619524165,209.60830358338924
75.357,75.357,421.58237716228507,420.8019369150595,210.10447470476976
75.3638,75.3638,422.84985006785905,420.946798364329,210.55992029244706
75.3705,75.3705,423.9470190625948,421.17131012874785,210.96475340719533
75.3773,75.3773,424.8039790683263,421.4661566440505,211.31593730514396
75.384,75.384,425.3851109469645,421.83359009254593,211.6134365081667
75.3908,75.3908,425.6850274692118,422.28541727200786,211.85685308091246
75.3975,75.3975,425.72095039886415,422.83864699863943,212.0435385054368
75.4043,75.4043,425.9186594764549,423.5100634270422,212.1681002770976
75.411,75.411,426.316028092678,424.31136721930926,212.2226785700577
75.4178,75.4178,426.8832196623198,425.24624518833326,212.24784497409507
75.4245,75.4245,427.59916873283953,426.30993019614885,212.36363806672932
75.4313,75.4313,428.45262698953593,427.4907020601603,212.58086460086037
75.438,75.438,429.43972227492696,428.7719426273896,212.90843102487509
75.4448,75.4448,430.55864268941536,430.13352269793074,213.3510024186377
75.4515,75.4515,431.80295105213276,431.55226065067916,213.90670315704193
75.4583,75.4583,433.1555351374809,433.00192712396415,214.56547600643705
75.465,75.465,434.5848277694053,434.45335075463805,215.30840243438908
75.4718,75.4718,436.0445561661728,435.87493320180306,216.10808700241026
75.4785,75.4785,437.4777692164124,437.23341360704944,216.93025218974162
75.4853,75.4853,438.82428603573857,438.4943547604247,217.7366363398283
75.492,75.492,440.02849001857214,439.6232102524755,218.48877160591047
75.4988,75.4988,441.03906036853726,440.5881819877188,219.14844314511546
75.5055,75.5055,441.779580703738,441.3592576494146,219.66047077568615
75.5123,75.5123,442.0865255095664,441.8880498058672,219.9182775003128
75.519,75.519,442.48370551654796,442.0744158268756,220.07023911483896
75.5258,75.5258,443.8501279287945,442.3708006154917,220.75916134110773
75.5325,75.5325,446.2526915567785,443.2449461485412,221.99432650920883
75.5393,75.5393,449.45380671621655,444.6657535911759,223.63922119777735
75.546,75.546,452.9763983733192,446.48010505115946,225.44460552276098
75.5528,75.5528,456.2737172031723,448.48155484345403,227.11481261407494
75.5595,75.5595,458.8914545670762,450.479878667059,228.38306682273108
75.5663,75.5663,460.55962100005746,452.33770900412924,229.07187528525878
75.573,75.573,461.21030853122375,453.97597141098544,229.12454457839158
75.5798,75.5798,461.47480707487824,455.3628030365308,229.6440144922153
75.5865,75.5865,462.4373308662035,456.4978350201475,230.5785470959794
75.5933,75.5933,463.82590882222877,457.39781141665196,231.7234207565046
75.6,75.6,465.3656402766825,458.08594988248484,232.8751962436726
75.6068,75.6068,466.8164284021793,458.5856985304871,233.87092941263998
75.6135,75.6135,467.99692768047146,458.9181844960386,234.61050995723747
75.6203,75.6203,468.7957424766013,459.10202708099166,235.06062787521924
75.627,75.627,469.17034557258165,459.1540867537311,235.24399941468428
75.6338,75.6338,469.20441646276345,459.2181828241261,235.2673532392237
75.6405,75.6405,469.58976394316215,459.38407572350394,235.42023610108848
75.6473,75.6473,470.2446755989979,459.6388974063419,235.62530654370656
75.654,75.654,471.07897090428185,459.9711380985804,235.81691923852054
75.6608,75.6608,472.00623565423456,460.3699184606514,235.9474968892445
75.6675,75.6675,472.9518763497997,460.8240706759069,235.98921658157587
75.6743,75.6743,473.8575686116567,461.32172769375035,236.04595277466345
75.681,75.681,474.6827636282345,461.85061282836915,236.19587780470633
75.6878,75.6878,475.4034356527892,462.3980831299222,236.4233645242999
75.6945,75.6945,476.00671501291947,462.9480280984927,236.7084294857711
75.7013,75.7013,476.47752382716953,463.47142290668575,237.0343095951078
75.708,75.708,476.7783585564717,463.9133441914694,237.39211695073865
75.7148,75.7148,476.838513520023,464.1872993323928,237.77513660752606
75.7215,75.7215,477.1042764734226,464.18760323080903,238.1640437403248
75.7283,75.7283,477.75234886788877,464.55406201142335,238.517723297099
75.735,75.735,478.7726930406933,465.3284020857557,238.7818239149869
75.7418,75.7418,480.07977969589695,466.4723426679112,238.90921636103616
75.7485,75.7485,481.530813069743,467.8666973142917,238.9398749986948
75.7553,75.7553,482.9594232619705,469.33541569477677,239.11510545097482
75.762,75.762,484.211836116741,470.68488558288584,239.38955044289406
75.7688,75.7688,485.1741486681649,471.745849404501,239.69924725073582
75.7755,75.7755,485.78596447085573,472.4067521481943,239.979014815672
75.7823,75.7823,486.0419748389889,472.63086139141745,240.1774219473016
75.789,75.789,486.09933155916127,472.80659493209885,240.26543523075193
75.7958,75.7958,486.3930245204925,473.28738123349217,240.2931938474831
75.8025,75.8025,486.8270869715406,473.9447473191488,240.4228411530738
75.8093,75.8093,487.3020776674755,474.6425056742725,240.62794196849376
75.816,75.816,487.7289381434611,475.2598656318937,240.87602355877252
75.8228,75.8228,488.0406769357526,475.7093512310532,241.1340753418227
75.8295,75.8295,488.2007416755734,475.94751815190637,241.372947228698
75.8363,75.8363,488.2056135102486,475.97576956991077,241.5710966993587
75.843,75.843,488.3315713057906,476.120814263576,241.71830398269066
75.8498,75.8498,488.5474366311394,476.383754164566,241.81843783753217
75.8565,75.8565,488.80865265329356,476.70883436879774,241.88950707366004
75.8633,75.8633,489.0767343416523,477.0567449742197,241.9603880043952
75.87,75.87,489.32113273630813,477.4149754500256,242.06362252745683
75.8768,75.8768,489.5117013900585,477.7963446017666,242.2241710235213
75.8835,75.8835,489.6079043428433,478.22610899085777,242.44799276299364
