Time,Time,Sum Acc X,Sum Acc Y,Sum Acc Z
43.335,43.335,5.59575114446803e-05,0.00103421248215033,0.0001663740241532732
43.3418,43.3418,0.0005505306422636866,0.009239859675555354,0.0014868427942781055
43.3485,43.3485,0.002731076612515335,0.041232921699876135,0.006644682306829996
43.3553,43.3553,0.009252214897181615,0.12495556740872689,0.02018743305912428
43.362,43.362,0.02436842629941105,0.2939377493863388,0.04765325555263209
43.3688,43.3688,0.053649051537188366,0.5785810511167502,0.09419733124556254
43.3755,43.3755,0.10330766021335035,0.9984211897594414,0.16330179627894692
43.3823,43.3823,0.17923710334903886,1.557495653224132,0.255952495340647
43.389,43.389,0.28577600287370564,2.2435721614081316,0.37060436012463316
43.3958,43.3958,0.4243582200614425,3.030835268599957,0.5039624616552901
43.4025,43.4025,0.5924002488523894,3.884880224850637,0.652197617246689
43.4093,43.4093,0.7828335232056106,4.7688517273599595,0.8120026352169049
43.416,43.416,0.9849554880951724,5.649749777930319,0.9806662509887245
43.4228,43.4228,1.1870358565366477,6.503199175079958,1.1549269531126516
43.4295,43.4295,1.3785067546115723,7.314752545012792,1.3302830933204404
43.4363,43.4363,1.5480415399033705,8.078120947174268,1.5027622432764807
43.443,43.443,1.6780324394219126,8.792840710259076,1.6723590576574354
43.4498,43.4498,1.740480662122311,9.462799302499262,1.8451254583097214
43.4565,43.4565,1.7832540318527117,10.095006246977537,2.032046499188893
43.4633,43.4633,1.9732287502596477,10.697583149242371,2.245484463041592
43.47,43.47,2.3470561533418706,11.276795071206745,2.49523969583621
43.4768,43.4768,2.9228825997672496,11.833832229707243,2.7857304894154913
43.4835,43.4835,3.688238527910042,12.36239521858132,3.1147730263429327
43.4903,43.4903,4.596354011285597,12.848099388303302,3.4737797004330333
43.497,43.497,5.574593043955343,13.270153902504378,3.848998737044777
43.5038,43.5038,6.541370654276787,13.604731137426745,4.223519424039323
43.5105,43.5105,7.423598167612594,13.828849539928997,4.579713921196285
43.5173,43.5173,8.168156708601668,13.923642035221768,4.901530758006005
43.524,43.524,8.745327624199293,13.971037346396992,5.176037772224319
43.5308,43.5308,9.145898012921965,14.166987823969832,5.3939558836288946
43.5375,43.5375,9.375376157433994,14.511689844461536,5.549368772764636
43.5443,43.5443,9.448166441021721,14.999754877755578,5.639076634581961
43.551,43.551,9.513730265176422,15.620894939841861,5.661962842052165
43.5578,43.5578,9.699614582596276,16.36087588316177,5.7054756531275395
43.5645,43.5645,9.991016926294291,17.202972870604246,5.813794192724736
43.5713,43.5713,10.376958971220413,18.129857405619596,5.984107507606744
43.578,43.578,10.848379639232368,19.125395610700753,6.211858207044533
43.5848,43.5848,11.395156060799167,20.175683231393332,6.490179191970501
43.5915,43.5915,12.00441398176665,21.269041053882468,6.810103550892079
43.5983,43.5983,12.661186461700867,22.395387170280678,7.161806062399945
43.605,43.605,13.349974557579632,23.545566786218796,7.536052724870702
43.6118,43.6118,14.055987002284143,24.71094272492625,7.92514663513515
43.6185,43.6185,14.762850704285134,25.883619342437385,8.321722756509606
43.6253,43.6253,15.43612574982857,27.054777901196452,8.710393152210166
43.632,43.632,15.99405469301581,28.204547091588715,9.053660903510766
43.6388,43.6388,16.29693596623386,29.287002864476765,9.288862484665433
43.6455,43.6455,16.413170262290404,30.229721478126244,9.347384311572812
43.6523,43.6523,17.07573404354173,30.954427191940407,9.513122590368207
43.659,43.659,18.32151941266385,31.400146353356188,9.911995077036886
43.6658,43.6658,20.07092775307274,31.536783017003366,10.50353611275378
43.6725,43.6725,22.13481146533131,31.70142319012735,11.195101306419655
43.6793,43.6793,24.25335434534505,32.12460426128178,11.85818344701396
43.686,43.686,26.15223161841829,32.74465485498903,12.359819530000314
43.6928,43.6928,27.596940970230882,33.498694176567476,12.592577338398668
43.6995,43.6995,28.43373630770319,34.33044703997093,12.68949887426257
43.7063,43.7063,28.61010016506811,35.18875657177489,13.118465836032462
43.713,43.713,29.047667608525234,36.02422336989247,13.822903724035516
43.7198,43.7198,29.973907394402566,36.78921318953824,14.699578045889595
43.7265,43.7265,31.215861531980167,37.44122788742542,15.620708799457118
43.7333,43.7333,32.587417234442654,37.94707019432881,16.459787298946832
43.74,43.74,33.92012359683749,38.28605170955983,17.11489571243935
43.7468,43.7468,35.08484166652027,38.451850360830576,17.524869979351134
43.7535,43.7535,36.002256393870866,38.45290979418114,17.6757928399912
43.7603,43.7603,36.64338100676493,38.594698242746404,17.753962391198854
43.767,43.767,37.02258214656308,38.84719539504599,17.99859564629106
43.7738,43.7738,37.185877374685376,39.17275139620733,18.32980433696116
43.7805,43.7805,37.19723402946208,39.53345359419913,18.666191248667992
43.7873,43.7873,37.269066585670295,39.89574965519035,18.938039278780124
43.794,43.794,37.361264907801896,40.233756151651924,19.096226789505195
43.8008,43.8008,37.424281304786874,40.53094214257482,19.11617663840983
43.8075,43.8075,37.42583562613917,40.780123224570296,19.235310209898756
43.8143,43.8143,37.500634677470025,40.9815139922943,19.475625294103523
43.821,43.821,37.654186025334575,41.13830116040505,19.808560198501667
43.8278,43.8278,37.884569220624044,41.25079103891215,20.20331153956659
43.8345,43.8345,38.192065651138954,41.31248403127733,20.632217444772692
43.8413,43.8413,38.580759081629004,41.31413075283797,21.071899524799083
43.848,43.848,39.054805743636315,41.39192701728619,21.501462309749176
43.8548,43.8548,39.610950482929816,41.55009340540694,21.900578812662438
43.8615,43.8615,40.231778189216854,41.776639699999095,22.24992505695132
43.8683,43.8683,40.88465874275776,42.04148423300865,22.53405793454003
43.875,43.875,41.527273119297725,42.30125494823619,22.744916478540055
43.8818,43.8818,42.11644986258602,42.508080974562674,22.883856302488876
43.8885,43.8885,42.61655705710805,42.61898031820828,22.961112083329695
43.8953,43.8953,43.005441077483965,42.6344867185756,22.993072831077587
43.902,43.902,43.277214535358134,42.789745282576135,22.998554401866116
43.9088,43.9088,43.44187200589055,43.07964141346896,23.0019182685288
43.9155,43.9155,43.52229371161633,43.482413571850124,23.003513119387105
43.9223,43.9223,43.54945186680323,43.96410141976623,23.0187468322899
43.929,43.929,43.55669245079079,44.48462303173033,23.051089477798126
43.9358,43.9358,43.574215576381086,45.00414693014617,23.09956121188365
43.9425,43.9425,43.62497365180414,45.488481676546726,23.159973812808435
43.9493,43.9493,43.72273132959967,45.912544518676405,23.226304305868673
43.956,43.956,43.872243748021496,46.261526370490536,23.291967672367896
43.9628,43.9628,44.07092636764293,46.530184937735065,23.350913874333685
43.9695,43.9695,44.311245047284416,46.72151511586028,23.398513490588236
43.9763,43.9763,44.5832116551447,46.846041505884294,23.432155263677622
43.983,43.983,44.87668622016498,46.921396054135,23.451671056101635
43.9898,43.9898,45.183752893062156,46.96961718713546,23.46017684270732
43.9965,43.9965,45.50121584404586,47.010588094931485,23.465331961989023
44.0033,44.0033,45.831377815950376,47.0547942146448,23.479390892860273
44.01,44.01,46.17894955621157,47.10000926412016,23.51694810622775
44.0168,44.0168,46.54509969745892,47.13276918502871,23.591473822374024
44.0235,44.0235,46.92150362023947,47.13330893283988,23.711792538023712
44.0303,44.0303,47.285368341064775,47.184003052070764,23.878683247305283
44.037,44.037,47.59576267698936,47.29745525524045,24.082485906255805
44.0438,44.0438,47.79402215998453,47.47384805059583,24.303496509827372
44.0505,44.0505,47.81140603109932,47.70183214738233,24.51598292080503
44.0573,44.0573,48.03826291758201,47.961372366805584,24.69464456446093
44.064,44.064,48.54650228650234,48.22805315896416,24.82087119688618
44.0708,44.0708,49.328137092021194,48.4765834534862,24.886232914074554
44.0775,44.0775,50.32459064178594,48.682541513823764,24.89240703882499
44.0843,44.0843,51.44014431943744,48.823309274485716,24.936046778689843
44.091,44.091,52.56622819828196,48.878916913900824,25.015260804075233
44.0978,44.0978,53.602743803582406,48.92537345087549,25.11310987689285
44.1045,44.1045,54.46931573033526,49.08804601099232,25.211542147514894
44.1113,44.1113,55.10819925065733,49.37917415241609,25.292802418871617
44.118,44.118,55.4833029322331,49.81001992944238,25.34078926745087
44.1248,44.1248,55.577905062116386,50.39136273835882,25.342173795478658
44.1315,44.1315,55.764162314798796,51.132934172977635,25.39735919579715
44.1383,44.1383,56.21893899061036,52.04160302623677,25.51562107566598
44.145,44.145,56.920823816823024,53.11902043402735,25.70005089237986
44.1518,44.1518,57.84153286465718,54.35965893844657,25.950375862444645
44.1585,44.1585,58.946297191020086,55.74961676000756,26.263074765700264
44.1653,44.1653,60.19393195498353,57.26618362879369,26.631559078491378
44.172,44.172,61.538294302812844,58.87799883203234,27.046435548865244
44.1788,44.1788,62.931357742846686,60.545494971789374,27.49582388552536
44.1855,44.1855,64.32656521040487,62.22153813923937,27.96555089673422
44.1923,44.1923,65.68106049625834,63.852665429518545,28.43931906656092
44.199,44.199,66.95392455856549,65.38252241515957,28.89823415971815
44.2058,44.2058,68.08131684371551,66.75502650931662,29.310379307925853
44.2125,44.2125,68.91934068820193,67.90246374839423,29.602712481741147
44.2193,44.2193,69.22183541928015,68.71778808191539,29.64744514371178
44.226,44.226,69.71734349423083,69.05398155792251,29.987848881281202
44.2328,44.2328,71.14351791705835,69.3251525156722,30.782785474739963
44.2395,44.2395,73.40724686276472,70.23330092184011,31.99173512461586
44.2463,44.2463,76.1997052734131,71.67448352436016,33.47995344371023
44.253,44.253,79.09443812441063,73.44391104319287,35.06349387737031
44.2598,44.2598,81.67452683871757,75.30515804104934,36.55532985358842
44.2665,44.2665,83.63386997352096,77.0513240892878,37.80142425307792
44.2733,44.2733,84.82467961469733,78.53839181504546,38.70418769481914
44.28,44.28,85.25108614964617,79.69410048632294,39.23070188236356
44.2868,44.2868,85.47283678440584,80.51068103720459,39.40482742969042
44.2935,44.2935,86.16292344441032,81.02831824644186,39.519939328372175
44.3003,44.3003,87.12074801345179,81.31516161741723,39.84012720093154
44.307,44.307,88.15859203855894,81.44871973108066,40.276079907247514
44.3138,44.3138,89.12543167375948,81.50162406641363,40.7466320369473
44.3205,44.3205,89.91924849063527,81.53260286243507,41.18826095316391
44.3273,44.3273,90.48827078708844,81.58213704082846,41.55982021165975
44.334,44.334,90.82443903438482,81.67200903549436,41.842886393381704
44.3408,44.3408,90.95264520297786,81.8079727466612,42.03861756973575
44.3475,44.3475,90.98695481159943,81.98428401119502,42.16232423341091
44.3543,44.3543,91.12970688988958,82.18852375336981,42.23715126498814
44.361,44.361,91.32807761383422,82.40565852698771,42.28807422798057
44.3678,44.3678,91.53767654321557,82.62105481415264,42.33709943045396
44.3745,44.3745,91.72695257145455,82.82254079894248,42.40020786844776
44.3813,44.3813,91.87877920156868,83.00156829197613,42.48612629357287
44.388,44.388,91.98945084551184,83.15345158006058,42.59663499511485
44.3948,44.3948,92.06585381195926,83.27681749540608,42.72796138589318
44.4015,44.4015,92.12176754720846,83.37260344550297,42.872739039403
44.4083,44.4083,92.17402959992519,83.44294436023368,43.02200318343226
44.415,44.415,92.23907663443495,83.49018578734959,43.16682766645466
44.4218,44.4218,92.33034584754012,83.51615308411422,43.29941819972963
44.4285,44.4285,92.45691534757647,83.52172274490339,43.413624030977445
44.4353,44.4353,92.623401292508,83.53674382770691,43.50494847392899
44.442,44.442,92.83080203857537,83.57348412626426,43.57032625398761
44.4488,44.4488,93.07786401618553,83.63372166381113,43.60802829051938
44.4555,44.4555,93.36248127852178,83.71952839291927,43.6178505835174
44.4623,44.4623,93.68259146549154,83.83288772452156,43.63428249909244
44.469,44.469,94.03620270629098,83.9753219163555,43.673402558784915
44.4758,44.4758,94.42070696265259,84.1476289369178,43.7299701781974
44.4825,44.4825,94.83212094197836,84.34987509341693,43.797673563786844
44.4893,44.4893,95.2647925188632,84.58168661402603,43.86991983862569
44.496,44.496,95.71159906965744,84.84279994905198,43.940689155241884
44.5028,44.5028,96.16425011418762,85.13359899740327,44.005368620527165
44.5095,44.5095,96.61291208701098,85.45459659933357,44.06104280306822
44.5163,44.5163,97.044705147892,85.8024535031366,44.1050248582529
44.523,44.523,97.4393115324018,86.1597884456567,44.12986200265619
44.5298,44.5298,97.75737888028617,86.48021704795873,44.14398075017623
44.5365,44.5365,97.92675639220096,86.67619179060164,44.22870904962028
44.5433,44.5433,98.00712656880542,86.73109637819212,44.407881314586824
44.55,44.55,98.43382565193532,87.17277622277136,44.67135461215651
44.5568,44.5568,99.25157252137275,88.09213659832912,44.96912704159401
44.5635,44.5635,100.42256874369276,89.48442937210919,45.23007891829615
44.5703,44.5703,101.83081934933685,91.23515060508473,45.38750565123385
44.577,44.577,103.31555680679176,93.15026205171522,45.39914520094228
44.5838,44.5838,104.71565369545375,95.01280231616103,45.53984475633599
44.5905,44.5905,105.90796437692838,96.6389449083748,45.80352917021703
44.5973,44.5973,106.8289301173865,97.91434314194743,46.134745508662164
44.604,44.604,107.47664359161841,98.8048442088582,46.467073082878585
44.6108,44.6108,107.89564867729231,99.3443943597181,46.73889514717059
44.6175,44.6175,108.14996287657257,99.60798785111159,46.90625429192974
44.6243,44.6243,108.29403101611614,99.6805501514348,46.95050176530227
44.631,44.631,108.35302008191317,99.72902802015638,47.02136879235084
44.6378,44.6378,108.38688503833137,99.85640777376362,47.17723843166586
44.6445,44.6445,108.54459209841319,100.04953959373921,47.374034878815856
44.6513,44.6513,108.865743867128,100.31745287113398,47.563075240552976
44.658,44.658,109.38518666255554,100.68132362962574,47.70029316651549
44.6648,44.6648,110.12267311502546,101.1649240153383,47.754078034097795
44.6715,44.6715,111.07652704836696,101.7871053958197,47.79809486757396
44.6783,44.6783,112.22225727543459,102.55642839953364,47.9363913538437
44.685,44.685,113.51572681536673,103.46836334573501,48.15073928244858
44.6918,44.6918,114.89929589884908,104.50557307778503,48.4137499349539
44.6985,44.6985,116.30917627165094,105.64037182853409,48.69489469844725
44.7053,44.7053,117.68254668900003,106.83630105003364,48.96519879311679
44.712,44.712,118.960346612226,108.04294519627314,49.19664088489747
44.7188,44.7188,120.07713346101626,109.17975578898496,49.35347796872681
44.7255,44.7255,120.9390426240304,110.11696096922988,49.3891035464612
44.7323,44.7323,121.41645106393229,110.67618475998829,49.50934421636839
44.739,44.739,121.4516201072623,110.68125288479803,49.77018802593281
44.7458,44.7458,122.05843307285915,111.37304588814632,50.09210062821687
44.7525,44.7525,123.18234536955947,112.74735874947743,50.35810819027199
44.7593,44.7593,124.6629832118037,114.65640607461523,50.4602539013866
44.766,44.766,126.27972339340423,116.84405403691481,50.58311137679686
44.7728,44.7728,127.8070216704054,119.01277246563546,50.92782868036097
44.7795,44.7795,129.06016836865473,120.89266365544094,51.432597918759114
44.7863,44.7863,129.9242627136556,122.29137166844141,52.002426339336736
44.793,44.793,130.36527156819707,123.1184589400055,52.54134011671125
44.7998,44.7998,130.4229526495197,123.38659228481662,52.97673514341705
44.8065,44.8065,130.65750802323194,123.57946203626328,53.27023200931099
44.8133,44.8133,131.07147041201287,124.08112046723133,53.41744133354724
44.82,44.82,131.55641395240346,124.72072985378583,53.44048106258489
44.8268,44.8268,132.02451057352215,125.34079886817038,53.50468012291595
44.8335,44.8335,132.41478843711963,125.82021598959093,53.616574339203304
44.8403,44.8403,132.69277885588485,126.08605083203828,53.74320992802911
44.847,44.847,132.846719174053,126.11459725635008,53.863178188648035
44.8538,44.8538,132.88264392765694,126.3047941408644,53.96776952944754
44.8605,44.8605,132.94536338251137,126.66451524938643,54.05899652253119
44.8673,44.8673,133.07773842271806,127.12718456449856,54.145457945999084
44.874,44.874,133.24483836910534,127.62184748515962,54.2376276965517
44.8808,44.8808,133.4102088978609,128.08440974600515,54.34407914750254
44.8875,44.8875,133.54129349763537,128.46612353717214,54.469303118333045
44.8943,44.8943,133.61502892046263,128.73852784284756,54.612940105182425
44.901,44.901,133.6217643765832,128.89449166735594,54.76998632437346
44.9078,44.9078,133.67762045840576,128.9456919128809,54.931643914917686
44.9145,44.9145,133.78036438007408,128.97390263244733,55.08661941538097
44.9213,44.9213,133.90792642131055,129.04893404533192,55.2227773454204
44.928,44.928,134.0372100659501,129.13736814565212,55.328985039795505
44.9348,44.9348,134.14845882966736,129.2103113143759,55.39674024660479
44.9415,44.9415,134.22809783056493,129.2471110217115,55.42115182387126
44.9483,44.9483,134.27005216005966,129.2570700513833,55.44112736842631
44.955,44.955,134.27560079618965,129.31452438774525,55.502974789423654
44.9618,44.9618,134.29926242900106,129.4120888456064,55.60123477480917
44.9685,44.9685,134.34122556458,129.53699656138312,55.72839828658018
44.9753,44.9753,134.38924420343525,129.6741963766477,55.875941784477206
44.982,44.982,134.43193584672352,129.80922219981628,56.03522025136543
44.9888,44.9888,134.4604918117158,129.93035808150708,56.198087494334914
44.9955,44.9955,134.4695227736639,130.02985981683864,56.35735054546011
45.0023,45.0023,134.4821006624461,130.1042388721024,56.507198703416
45.009,45.009,134.51576589501192,130.1537957343352,56.64362828024051
45.0158,45.0158,134.5680672545833,130.18171177109278,56.76474508063729
45.0225,45.0225,134.63492155235187,130.19301928105023,56.87076973206219
45.0293,45.0293,134.71074542312297,130.19362496467625,56.963684966339656
45.036,45.036,134.7888525630366,130.19783606341366,57.04663274548379
45.0428,45.0428,134.86219771880585,130.20178489851872,57.12315759470729
45.0495,45.0495,134.92430454671907,130.20180398064238,57.19631900911301
45.0563,45.0563,134.97017174518734,130.2078291961723,57.267644203911644
45.063,45.063,134.99712082415016,130.220129086127,57.336145382660575
45.0698,45.0698,135.0058149064015,130.23752028554966,57.39835128191174
45.0765,45.0765,135.01131993372468,130.25834639972112,57.45001482388924
45.0833,45.0833,135.02574752380946,130.2811595531507,57.488588826195375
45.09,45.09,135.04484127625338,130.30438294153507,57.514494335927715
45.0968,45.0968,135.06544332380895,130.32604892482527,57.530076875875274
45.1035,45.1035,135.08485016441838,130.3442161841411,57.537735930643
45.1103,45.1103,135.10087023212606,130.35728549514732,57.53931793690031
45.117,45.117,135.11140730528314,130.3639550219808,57.54203888719408
45.1238,45.1238,135.11292835875557,130.3648590270313,57.54689159161312
45.1305,45.1305,135.1262475871762,130.37471821854479,57.55095960875488
45.1373,45.1373,135.16125994087383,130.39539700988985,57.55178235424237
45.144,45.144,135.22334964239587,130.4289210117318,57.56300685425507
45.1508,45.1508,135.31433766984824,130.47647914493706,57.590987041987844
45.1575,45.1575,135.43152563784622,130.53727720883174,57.64155979283648
45.1643,45.1643,135.5678321451212,130.60789406572277,57.718604458855715
45.171,45.171,135.71279666935928,130.68246595459354,57.82329944298737
45.1778,45.1778,135.85415374778552,130.75360612836087,57.95421347429621
45.1845,45.1845,135.9796643390626,130.81372052205106,58.107875919916964
45.1913,45.1913,136.07892023270597,130.85632797877952,58.279426061171044
45.198,45.198,136.1447021675567,130.87708459817122,58.463098387310836
45.2048,45.2048,136.17346880855456,130.87980949737533,58.652437186638984
45.2115,45.2115,136.18174166230403,130.90481077139037,58.8403622342882
45.2183,45.2183,136.22351217215012,130.94830487794823,59.019584882756
45.225,45.225,136.29130097171716,131.00451317849428,59.18356643395938
45.2318,45.2318,136.37404527371538,131.0663995829391,59.32749757585812
45.2385,45.2385,136.45872412871418,131.12626877437975,59.44891380235985
45.2453,45.2453,136.5325416649717,131.1761951044019,59.54793566605771
45.252,45.252,136.58482631100614,131.20853738022464,59.62709383102825
45.2588,45.2588,136.60851825523537,131.2166321441951,59.69069073916335
45.2655,45.2655,136.61583673767083,131.23785741024616,59.74376136746816
45.2723,45.2723,136.6522583339627,131.29133855917044,59.79099223429296
45.279,45.279,136.71337777701686,131.37680277306197,59.83593317130331
45.2858,45.2858,136.79349236518286,131.48942511583638,59.88038253973871
45.2925,45.2925,136.88537386691917,131.61966308872692,59.92414157614231
45.2993,45.2993,136.98112723070963,131.754846297588,59.96557209070461
45.306,45.306,137.07490203801683,131.88192746113424,60.002373452680224
45.3128,45.3128,137.16481146200354,131.99092671353057,60.031851059424014
45.3195,45.3195,137.2524962897007,132.07825624082258,60.05112122596898
45.3263,45.3263,137.34137605302058,132.1484041516729,60.05786182661597
45.333,45.333,137.43511638444372,132.21321500625078,60.06424518082255
45.3398,45.3398,137.5370879517469,132.2894632789531,60.08145426017024
45.3465,45.3465,137.6506997522522,132.39575315373284,60.10358401946791
45.3533,45.3533,137.77986213194794,132.5493555276196,60.121382477790924
45.36,45.36,137.92906443922445,132.7635054168087,60.12367501510674
45.3668,45.3668,138.10317365983852,133.0456693344319,60.14779082128546
45.3735,45.3735,138.30706019560228,133.39699810668122,60.206572010590406
45.3803,45.3803,138.5449591672448,133.81294476870954,60.303667811173455
45.387,45.387,138.8197419011937,134.28488637590186,60.43718727009923
45.3938,45.3938,139.13250167679766,134.80234052719206,60.60008644348415
45.4005,45.4005,139.48266117135935,135.35508305438742,60.78149753251286
45.4073,45.4073,139.86842423270727,135.93437880542803,60.968159035954734
45.414,45.414,140.2870276467644,136.53272453127505,61.14513685617517
45.4208,45.4208,140.73335364337228,137.14067793361377,61.29446359795814
45.4275,45.4275,141.19365922315606,137.73817584117262,61.38991962072194
45.4343,45.4343,141.63282770793325,138.28227402931338,61.392660828291895
45.441,45.441,141.98329898232657,138.70095915818547,61.52411733977527
45.4478,45.4478,142.1519689513269,138.9024640236006,61.80656607572329
45.4545,45.4545,142.25282492970211,139.00334579455966,62.20878260291497
45.4613,45.4613,142.66744503757175,139.45179965336746,62.6550145534579
45.468,45.468,143.3758356761837,140.23049008725033,63.05307087549826
45.4748,45.4748,144.2990534207405,141.2591991218198,63.32667057452816
45.4815,45.4815,145.32172049406185,142.41238697125715,63.435719230592255
45.4883,45.4883,146.31922616396776,143.54478826672218,63.49054429655274
45.495,45.495,147.1822099884702,144.51881249493937,63.67488152588798
45.5018,45.5018,147.83504800160307,145.2292467066819,63.933902511407396
45.5085,45.5085,148.24503634663324,145.619766489738,64.20664538512435
45.5153,45.5153,148.4205850228107,145.6876929188574,64.43767289983758
45.522,45.522,148.4398388950497,145.89781274196764,64.5844704010226
45.5288,45.5288,148.5962123296125,146.30845495395027,64.6211792892751
45.5355,45.5355,148.82700321314235,146.82694916014552,64.70257010732351
45.5423,45.5423,149.0751765217775,147.36276794576239,64.89325403093773
45.549,45.549,149.2962683976747,147.84094009590797,65.17092186687836
45.5558,45.5558,149.46105283848803,148.20986405902607,65.50480306834388
45.5625,45.5625,149.55478093935437,148.4437312224843,65.86121492696549
45.5693,45.5693,149.5746527611999,148.5408354622052,66.20856301682201
45.576,45.576,149.62243418913215,148.56254754944183,66.52125016588955
45.5828,45.5828,149.72557617293506,148.6715318841607,66.78212066454277
45.5895,45.5895,149.86855930274785,148.82934396485487,66.98320784561564
45.5963,45.5963,150.03534303320924,148.9971315919036,67.1249545449428
45.603,45.603,150.21169019683865,149.14113420077442,67.21439028018024
45.6098,45.6098,150.38691805620812,149.23656044273778,67.26282030255989
45.6165,45.6165,150.55501134815967,149.26941543140276,67.28376110972684
45.6233,45.6233,150.71478144837658,149.30247620567565,67.29159235673272
45.63,45.63,150.868649763784,149.3951886823694,67.30018196033632
45.6368,45.6368,151.02104394512833,149.53289764258315,67.32076047193935
45.6435,45.6435,151.17753383281993,149.69505683183675,67.35987633411935
45.6503,45.6503,151.3436729215663,149.85964648284616,67.41897068416586
45.657,45.657,151.52271777672303,150.00775082571712,67.49610899219715
45.6638,45.6638,151.7135242423734,150.1264915165796,67.58836437437277
45.6705,45.6705,151.90987398422197,150.2103016755544,67.69304358019257
45.6773,45.6773,152.10108575090553,150.2609693768658,67.80785050008089
45.684,45.684,152.27375235219804,150.28631302132152,67.93091409571413
45.6908,45.6908,152.41475698555695,150.29772388360092,68.06061404746806
45.6975,45.6975,152.5147414719832,150.30746758640626,68.19460183566486
45.7043,45.7043,152.57055467124297,150.32629894102305,68.32851159467722
45.711,45.711,152.58575898626034,150.3615312119058,68.45570424365154
45.7178,45.7178,152.60237457097008,150.41591330773676,68.56846056360607
45.7245,45.7245,152.63957981576095,150.48767470031441,68.65973591722461
45.7313,45.7313,152.68662002300198,150.57158616207158,68.72447339178294
45.738,45.738,152.73515826552295,150.6605171634853,68.76020822841222
45.7448,45.7448,152.77985481699307,150.74703517854127,68.76720938733683
45.7515,45.7515,152.81796707375892,150.82479316478685,68.78601820464228
45.7583,45.7583,152.84854596962435,150.88957134568003,68.82532045560635
45.765,45.765,152.87166182665652,150.93986669143783,68.87798003107515
45.7718,45.7718,152.88787837542876,150.97692693047355,68.93600102810825
45.7785,45.7785,152.89789572121785,151.00420345809147,68.99169910724727
45.7853,45.7853,152.90221110434456,151.02638330772638,69.03876491956026
45.792,45.792,152.9035931973662,151.0483127962829,69.07297505696825
45.7988,45.7988,152.9113032142597,151.07409260593514,69.09242964702779
45.8055,45.8055,152.9265710739438,151.10648104435913,69.09729529035631
45.8123,45.8123,152.9510682383495,151.1466381692015,69.10539545249011
45.819,45.819,152.98671566410374,151.19420395330167,69.12403559186275
45.8258,45.8258,153.03545320990673,151.24765715568742,69.15040614367068
45.8325,45.8325,153.0989154943632,151.30479742851594,69.18146501795961
45.8393,45.8393,153.17809685472344,151.36308904775802,69.21404064402675
45.846,45.846,153.27317773191822,151.4196819095745,69.24514810157818
45.8528,45.8528,153.38344629512127,151.47125998248634,69.27257780193491
45.8595,45.8595,153.50697553780245,151.51413522573574,69.2955399032277
45.8663,45.8663,153.639871588964,151.5448496296715,69.31504708008403
45.873,45.873,153.77548211376137,151.56103724640474,69.33395082469302
45.8798,45.8798,153.90452578171082,151.56190699576166,69.3567815666031
45.8865,45.8865,154.01684532873531,151.5758503128441,69.38935565841582
45.8933,45.8933,154.10430090918737,151.60356597820933,69.437989417011
45.9,45.9,154.16346194911193,151.64413815486125,69.50850511147037
45.9068,45.9068,154.19689192609914,151.69692558938607,69.60531179145056
45.9135,45.9135,154.21260284223752,151.76131910738886,69.73057242047106
45.9203,45.9203,154.22246696604068,151.83683163902037,69.8835000493701
45.927,45.927,154.2408787653222,151.92369361514037,70.05991757635987
45.9338,45.9338,154.2832316676674,152.02268740146047,70.25205460348766
45.9405,45.9405,154.36132938295216,152.13326453018175,70.44835146928197
45.9473,45.9473,154.47511776155645,152.25122611903976,70.63351119127663
45.954,45.954,154.60686607284688,152.36744941802155,70.78993981393465
45.9608,45.9608,154.72290845506728,152.4669011993186,70.90045653811657
45.9675,45.9675,154.77899894551825,152.52714704511212,70.95048678761651
45.9743,45.9743,154.83360944503985,152.53706930168292,70.97162377685306
45.981,45.981,155.05226958945858,152.65638115859298,71.06964821392542
45.9878,45.9878,155.48448287696326,152.9297585894958,71.24458613743042
45.9945,45.9945,156.16573260214616,153.4010292679868,71.4903920971319
46.0013,46.0013,157.10512742245305,154.10434650297358,71.79461151695077
46.008,46.008,158.27658068725572,155.05506700321237,72.13817059379804
46.0148,46.0148,159.6196689248513,156.24056754440383,72.49456961421348
46.0215,46.0215,161.04685201742888,157.6084962341774,72.82501739864936
46.0283,46.0283,162.4442838346868,159.05403647815007,73.0708264142647
46.035,46.035,163.66613048195146,160.41656911617216,73.15999752780864
46.0418,46.0418,164.54424921138474,161.49754320196666,73.27868891234333
46.0485,46.0485,164.9285187803569,162.10304218956506,73.59585616253727
46.0553,46.0553,165.11671809077478,162.10658055757122,74.03431715559496
46.062,46.062,165.85205344541853,162.74756133882715,74.48097112498797
46.0688,46.0688,167.00920844161948,163.9347602012015,74.829064022725
46.0755,46.0755,168.3954626088915,165.47697408629787,75.00650861093233
46.0823,46.0823,169.79808900450675,167.12900237494478,75.026349258259
46.089,46.089,171.03191925986928,168.6486033233849,75.2278498220852
46.0958,46.0958,171.97282891187842,169.84578854513953,75.56590148840067
46.1025,46.1025,172.56980210330207,170.61181111433197,75.98212800076935
46.1093,46.1093,172.83796906123135,170.92575940509246,76.4193094922791
46.116,46.116,172.84020151250036,171.00871929820147,76.83113200498173
46.1228,46.1228,173.01595895906377,171.38147811774152,77.18608366807679
46.1295,46.1295,173.27804092025022,171.91347647801743,77.46641383601371
46.1363,46.1363,173.5463132847705,172.47550335436426,77.66548811636628
46.143,46.143,173.7598841826998,172.95772286159723,77.78635053704053
46.1498,46.1498,173.88103073172567,173.2819491011634,77.84082114812271
46.1565,46.1565,173.89782055112607,173.40807433164704,77.84663334680216
46.1633,46.1633,173.9731865928596,173.48217271127848,77.87136096911777
46.17,46.17,174.1120766656378,173.72606537500414,77.91415674205744
46.1768,46.1768,174.27983226690415,174.08609598867963,77.97202069622494
46.1835,46.1835,174.44457389911463,174.497893475348,78.05130341943058
46.1903,46.1903,174.58315338938843,174.90089103509118,78.16285395886887
46.197,46.197,174.68578416038162,175.25197063382345,78.31447163830038
46.2038,46.2038,174.75804148412516,175.53406175877828,78.5052135548648
46.2105,46.2105,174.8147400383242,175.75721217489854,78.72435603153319
46.2173,46.2173,174.86553185054194,175.95289199156386,78.95417213051331
46.224,46.224,174.9010076501985,176.16362419611224,79.1741013727999
46.2308,46.2308,174.9144371421812,176.4304883189789,79.36459690622343
46.2375,46.2375,175.02845837315527,176.78214231144818,79.51003503415663
46.2443,46.2443,175.29635994429864,177.2285780135216,79.60063571598671
46.251,46.251,175.75153390242622,177.76002820369186,79.63341239163074
46.2578,46.2578,176.3922863326276,178.34930461782972,79.65503754518762
46.2645,46.2645,177.18135284347346,178.95596267792868,79.72303300879007
46.2713,46.2713,178.05744292705307,179.53140662749746,79.82700715567185
46.278,46.278,178.94964607137305,180.02438969538446,79.95584908929324
46.2848,46.2848,179.7883367152018,180.38644435866564,80.09857715542691
46.2915,46.2915,180.5117339157206,180.57667628927504,80.24468968160964
46.2983,46.2983,181.06976266295135,180.5879262749271,80.38425542452666
46.305,46.305,181.42638708214812,180.81683642758634,80.50784682798452
46.3118,46.3118,181.56044650143497,181.26548169349172,80.60630613578795
46.3185,46.3185,181.65614731532736,181.92291322259354,80.67041238465163
46.3253,46.3253,181.97704296204824,182.76766334750937,80.6907946274699
46.332,46.332,182.50932657444525,183.7710210027721,80.72314229262726
46.3388,46.3388,183.23238449672095,184.90035005955772,80.81592412076047
46.3455,46.3455,184.12164532330786,186.12195493475642,80.97483900469808
46.3523,46.3523,185.1520784397137,187.40327293572818,81.20341924899135
46.359,46.359,186.30101840934245,188.714348905291,81.50302333135043
46.3658,46.3658,187.5482493061048,190.02852244723726,81.87255705530514
46.3725,46.3725,188.87307623468385,191.32222455265997,82.30788895077578
46.3793,46.3793,190.25025158970766,192.57406742849494,82.80098942664418
46.386,46.386,191.6467729837564,193.76370111121275,83.3390202019751
46.3928,46.3928,193.02090081133872,194.87079427957465,83.90410085407612
46.3995,46.3995,194.32418633934546,195.87433816981704,84.4742378322429
46.4063,46.4063,195.50636505808652,196.75262553639735,85.0251031292574
46.413,46.413,196.5204205314885,197.48529818956547,85.53126534689518
46.4198,46.4198,197.3194341855535,198.05729951774342,85.96269827967735
46.4265,46.4265,197.8276034411374,198.45607444615317,86.27078819428402
46.4333,46.4333,197.88071519908488,198.6512866249782,86.36852784241826
46.44,46.44,198.56463640812999,198.73540213638577,86.60611061230367
46.4468,46.4468,200.2961774653854,199.21817250271204,87.29690654596334
46.4535,46.4535,203.22857285315774,200.20643992319089,88.4811821328296
46.4603,46.4603,207.21360205104705,201.71687877431503,90.07915585416899
46.467,46.467,211.80498768209725,203.64046149433167,91.90574032121893
46.4738,46.4738,216.39284226251416,205.7734679312811,93.72367766371288
46.4805,46.4805,220.37805093788387,207.8848397801823,95.3026303528749
46.4873,46.4873,223.3099629883611,209.77745409699,96.46610488409983
46.494,46.494,224.95763084355136,211.32130316967746,97.11937219788865
46.5008,46.5008,225.31538107399115,212.45861566169518,97.25656521866648
46.5075,46.5075,226.07004123467735,213.19186528264214,97.56354748385975
46.5143,46.5143,227.641652785336,213.566022554898,98.18912347158769
46.521,46.521,229.68545353493423,213.65116720399632,98.9845787113843
46.5278,46.5278,231.86755838939519,213.77538744918533,99.80785408591201
46.5345,46.5345,233.90997249336317,214.03290470094927,100.54658170486191
46.5413,46.5413,235.61673431540729,214.3605177422582,101.130985758606
46.548,46.548,236.88125009718905,214.71207967410896,101.53609333818747
46.5548,46.5548,237.6787999663872,215.05818199071277,101.77537300498571
46.5615,46.5615,238.04960343551036,215.38351979351765,101.88949195596034
46.5683,46.5683,238.07727600294623,215.68396480496307,101.93350829355819
46.575,46.575,238.28787151128967,215.9638918860353,101.9646601975901
46.5818,46.5818,238.63011207324826,216.233250770349,102.03237748347867
46.5885,46.5885,239.0101509108115,216.50414854776645,102.1717276861514
46.5953,46.5953,239.35562721749483,216.78637569938383,102.40108769361471
46.602,46.602,239.61628582564228,217.07990998198306,102.72501920109966
46.6088,46.6088,239.7530626365489,217.36435609900195,103.14081597594449
46.6155,46.6155,239.7848086219885,217.59034151690608,103.64180163477984
46.6223,46.6223,240.04332738140639,217.68123153608752,104.21253790469866
46.629,46.629,240.58849552292162,217.81114012015624,104.82050018899618
46.6358,46.6358,241.45108306956982,218.22629036994005,105.41320495743933
46.6425,46.6425,242.6040728801945,218.94145215842767,105.92675908481964
46.6493,46.6493,243.95864771954172,219.90788286538856,106.30308297573717
46.656,46.656,245.38398272775748,221.01924341916003,106.50575413008804
46.6628,46.6628,246.73691338566255,222.1344219003776,106.52795755788833
46.6695,46.6695,247.89128251387663,223.10859783619745,106.6634077786321
46.6763,46.6763,248.7603514061965,223.82332718839635,106.9107154714253
46.683,46.683,249.30861897889176,224.20846599799987,107.21230329377751
46.6898,46.6898,249.55213142966826,224.2513884210206,107.51105373121028
46.6965,46.6965,249.55594579757357,224.50979365047186,107.76051854763067
46.7033,46.7033,249.7251446356432,224.9891893302532,107.93120152930342
46.71,46.71,249.9715326587602,225.58906433660124,108.01222074181587
46.7168,46.7168,250.21592258573327,226.20820680711216,108.01542456145229
46.7235,46.7235,250.39789104102522,226.76033709430172,108.08583945305834
46.7303,46.7303,250.4795447989438,227.1836992919322,108.20053041769785
46.737,46.737,250.51451153369865,227.44440422007625,108.33582767356984
46.7438,46.7438,250.6646462517609,227.53483203452495,108.47102248118979
46.7505,46.7505,250.9160232821919,227.6003109992684,108.5901106376059
46.7573,46.7573,251.24750724782976,227.79013032578393,108.68201060940686
46.764,46.764,251.6344929582957,228.06033143968872,108.74032155019114
46.7708,46.7708,252.05083323456,228.36036641073002,108.76332134963839
46.7775,46.7775,252.47030691247974,228.64046006627584,108.77235789942004
46.7843,46.7843,252.86854355453096,228.85984569352263,108.80481868166777
46.791,46.791,253.22434252598288,228.99428879230086,108.84724171595806
46.7978,46.7978,253.52047684069117,229.0416519900587,108.88285814505926
46.8045,46.8045,253.74504483730755,229.05833080141352,108.89380557404814
46.8113,46.8113,253.8897993298737,229.09309819887346,108.92249995088713
46.818,46.818,253.94263765546617,229.09810168397146,108.99728706544452
46.8248,46.8248,254.00320707545654,229.1964179200126,109.1129275847667
46.8315,46.8315,254.20125353454443,229.42396357783127,109.25471193433391
46.8383,46.8383,254.54670151746964,229.79230943879813,109.40377327281793
46.845,46.845,255.02299963134942,230.28737740555758,109.54147247174132
46.8518,46.8518,255.5893239406407,230.87211101871642,109.65157025161066
46.8585,46.8585,256.1928893715734,231.49238543166237,109.7217289743495
46.8653,46.8653,256.7803061427596,232.0851251168339,109.74561179799773
46.872,46.872,257.3029995964767,232.58712112517554,109.76638868186753
46.8788,46.8788,257.7186237631132,232.9427759552471,109.8218494155418
46.8855,46.8855,257.9914414728787,233.10921469139495,109.89515704096597
46.8923,46.8923,258.09304216434816,233.1601233330489,109.96522012753488
46.899,46.899,258.18289665338887,233.4420407997468,110.00928559674261
46.9058,46.9058,258.4761590184102,233.95558777951186,110.01354373516752
46.9125,46.9125,258.9771439719932,234.69032370146712,110.08607035016247
46.9193,46.9193,259.68278968000465,235.62712372750593,110.24212696132949
46.926,46.926,260.5816112033024,236.7405627244072,110.48981605269017
46.9328,46.9328,261.6519801620755,238.00051812163238,110.8282909859143
46.9395,46.9395,262.8611928326389,239.3723063898187,111.24740350490355
46.9463,46.9463,264.1659816132058,240.81546759991053,111.72863706752266
46.953,46.953,265.5141946756962,242.28236477863572,112.2466885090789
46.9598,46.9598,266.8410613424433,243.72104392106365,112.76786700126715
46.9665,46.9665,268.0412685506016,245.07995707215764,113.23566363229791
46.9733,46.9733,268.92643522385305,246.29215693214468,113.54706162624414
46.98,46.98,269.2322800591628,247.24147757066362,113.55354043089302
46.9868,46.9868,269.76248376717865,247.76248604372498,113.99779076469537
46.9935,46.9935,271.27047175885383,247.8300618190752,114.97073767741183
47.0003,47.0003,273.7023672923502,248.56843433017883,116.44266002256256
47.007,47.007,276.7907606658514,249.92892525219122,118.27611290166598
47.0138,47.0138,280.11979261854276,251.7289984766377,120.26199929966349
47.0205,47.0205,283.2390747005774,253.70587383594884,122.17203892018001
47.0273,47.0273,285.7712643947055,255.59282162228305,123.80464160794645
47.034,47.034,287.4822725965739,257.17809169116435,125.0170091186802
47.0408,47.0408,288.3035662959247,258.33266212997876,125.74246643026837
47.0475,47.0475,288.31157556702095,259.01312099071424,125.9905566181084
47.0543,47.0543,288.9407972182737,259.24917981095615,126.14951141860436
47.061,47.061,289.9820587447999,259.37598011417,126.60843983233785
47.0678,47.0678,291.20476478238317,259.75680033507547,127.24790693489507
47.0745,47.0745,292.4060684517978,260.2780884909558,127.95565023246527
47.0813,47.0813,293.43307702398334,260.83892752458985,128.6399830986331
47.088,47.088,294.1935889081293,261.3620424308159,129.23734974463494
47.0948,47.0948,294.65528968812674,261.7985669373583,129.7143242934243
47.1015,47.1015,294.83566180492636,262.12735045394584,130.06471637772856
47.1083,47.1083,294.8846405402392,262.3502832972402,130.30332789977297
47.115,47.115,295.0930632140083,262.48552029409984,130.45834153744042
47.1218,47.1218,295.38806764653106,262.5602505690965,130.56381562003335
47.1285,47.1285,295.7053850012458,262.6041062177026,130.65302457966646
47.1353,47.1353,295.99657246193334,262.64394962476797,130.75320218171055
47.142,47.142,296.23202048656475,262.7005728270096,130.88226808422723
47.1488,47.1488,296.4006060935576,262.7874282317502,131.04778056106878
47.1555,47.1555,296.5070658694287,262.9110301187665,131.24785824808234
47.1623,47.1623,296.5679250131263,263.07250445952207,131.47350149993787
47.169,47.169,296.60673538082824,263.2697990585375,131.7115784980858
47.1758,47.1758,296.64953237141583,263.49996764584074,131.94768547037742
47.1825,47.1825,296.72131393189653,263.76088686939295,132.16834362846112
47.1893,47.1893,296.8437309018072,264.05204230125156,132.3624925995942
47.196,47.196,297.03353214925016,264.37443061390593,132.52245142907992
47.2028,47.2028,297.30132430566977,264.7299310886487,132.6443188854214
47.2095,47.2095,297.65063253734235,265.1205980205814,132.72773319350222
47.2163,47.2163,298.07733820393184,265.5481010609222,132.7750866494145
47.223,47.223,298.56956193439095,266.0132930385366,132.79038672848176
47.2298,47.2298,299.1083063970173,266.5159555083184,132.8026148906257
47.2365,47.2365,299.6691306212,267.05477513654745,132.83783365569636
47.2433,47.2433,300.22459577735964,267.62715174038976,132.89116731859514
47.25,47.25,300.7470282654272,268.2276140169207,132.95643461128412
47.2568,47.2568,301.2098003364452,268.84170800867906,133.02323865327207
47.2635,47.2635,301.58159526802285,269.43176911802016,133.06976799253607
47.2703,47.2703,301.80973495145133,269.9174238877539,133.0829906635586
47.277,47.277,301.81535802486667,270.1664320940887,133.2049104255431
47.2838,47.2838,302.1696517056503,270.3142041289272,133.468125463966
47.2905,47.2905,302.9602417924712,270.9869848635637,133.86400251451033
47.2973,47.2973,304.19095804125186,272.21905079245676,134.34036911837174
47.304,47.304,305.7643714818594,273.92377748607987,134.8209440296005
47.3108,47.3108,307.5074472601654,275.9091972796851,135.22884354780774
47.3175,47.3175,309.2180086753268,277.92300050528513,135.50387589171675
47.3243,47.3243,310.71320281524135,279.71196297434136,135.61395903745372
47.331,47.331,311.8683014313017,281.0796987036609,135.6671924901757
47.3378,47.3378,312.63684448783346,281.92564449253115,135.8504977236602
47.3445,47.3445,313.04811080787493,282.255663344764,136.10888809395055
47.3513,47.3513,313.18581893277997,282.34631523875976,136.37996371243577
47.358,47.358,313.21479782545356,282.71056941879766,136.60770894597798
47.3648,47.3648,313.3126478201143,283.1954341519859,136.7529025095036
47.3715,47.3715,313.41623533534306,283.68083080806554,136.79990952587718
47.3783,47.3783,313.5096308687911,284.10045026752186,136.84109211313634
47.385,47.385,313.6204501912386,284.4438315764903,136.9391661966063
47.3918,47.3918,313.80499719498977,284.74535984511755,137.05061559659873
47.3985,47.3985,314.1299628292756,285.0661375031984,137.1302523345618
47.4053,47.4053,314.6541644856523,285.47421854670057,137.14122265450928
47.412,47.412,315.4129636459585,286.02823368630004,137.219737008446
47.4188,47.4188,316.4094348764613,286.76689160862776,137.3887120742893
47.4255,47.4255,317.6138703891103,287.70403572217907,137.62972825608122
47.4323,47.4323,318.969676278776,288.82676703468525,137.9086348654273
47.439,47.439,320.40013919379277,290.0912197852587,138.17871796339975
47.4458,47.4458,321.80731050715605,291.4110799752419,138.38107153577008
47.4525,47.4525,323.0610106453568,292.64455967326415,138.45008229105034
47.4593,47.4593,323.9957051091549,293.5991238783143,138.5649601229157
47.466,47.466,324.4430693315659,294.07015864622167,138.8656349771776
47.4728,47.4728,324.5902091966184,294.23556829198486,139.28504147713866
47.4795,47.4795,325.32807468615533,295.08015033997566,139.7030789593742
47.4863,47.4863,326.53750090164107,296.5108023787098,139.99069489501034
47.493,47.493,328.01688227674555,298.3169905582592,140.0536058713851
47.4998,47.4998,329.5329129163941,300.2257021680781,140.2484092774151
47.5065,47.5065,330.872680180493,301.96877745890936,140.6671534828927
47.5133,47.5133,331.8833450067015,303.3368116039019,141.22505980567522
47.52,47.52,332.4915843025968,304.2082619297622,141.81608701158467
47.5268,47.5268,332.7033344480759,304.5559601695334,142.34261881816425
47.5335,47.5335,332.81811849421365,304.6751951562899,142.73542769452175
47.5403,47.5403,333.15104723883786,305.14305403856116,142.96257301110128
47.547,47.547,333.5845522061719,305.8091620386041,143.02846456012702
47.5538,47.5538,334.0156878040876,306.5211370586219,143.09254931328394
47.5605,47.5605,334.3690316936713,307.1492121335582,143.2425149323505
47.5673,47.5673,334.60030917294404,307.60176417907877,143.43444075559546
47.574,47.574,334.69492285209964,307.8316133781225,143.63331013451673
47.5808,47.5808,334.7262818430548,307.8349823325061,143.817126378222
47.5875,47.5875,334.8542222634146,308.0251067133241,143.9769850444772
47.5943,47.5943,335.03834251985717,308.3498950860454,144.1141765327991
47.601,47.601,335.23462912042584,308.73822078935444,144.23603811253895
47.6078,47.6078,335.401842639854,309.12049464251135,144.35206835820676
47.6145,47.6145,335.5069530413781,309.44014982451847,144.47088021549402
47.6213,47.6213,335.5294909831348,309.66077872417543,144.597923390456
47.628,47.628,335.59510625526144,309.76833846970635,144.73400075526098
47.6348,47.6348,335.7401605019705,309.76911771367025,144.87497154924006
47.6415,47.6415,335.94491455638195,309.853397083717,145.01285623483105
47.6483,47.6483,336.1833164440922,309.99181259797984,145.13787291776424
47.655,47.655,336.4278525240914,310.15056808083244,145.24055385547658
47.6618,47.6618,336.65369918366065,310.2985927930893,145.31327104471382
47.6685,47.6685,336.84181513823773,310.4118218295092,145.35095602192123
47.6753,47.6753,336.9808352992002,310.47572771004855,145.35121855794316
47.682,47.682,337.06759517379516,310.4859391513462,145.38825464174624
47.6888,47.6888,337.1062376369106,310.52474573463013,145.46020794412303
47.6955,47.6955,337.1062931903408,310.6011697882815,145.5627137277881
47.7023,47.7023,337.13217876559617,310.6999661632813,145.68969794309476
47.709,47.709,337.1704099547824,310.80489237632196,145.83371073217972
47.7158,47.7158,337.2083539070048,310.9010938494745,145.98645588177243
47.7225,47.7225,337.2358401354464,310.97678656648156,146.13960796404524
47.7293,47.7293,337.24602390752904,311.0242071456102,146.2858407397192
47.736,47.736,337.2564630893565,311.03994394236184,146.41982191078569
47.7428,47.7428,337.2875807568222,311.05513363106246,146.53886818250461
47.7495,47.7495,337.33666114105813,311.09699281630037,146.64306419915107
47.7563,47.7563,337.39885548253915,311.1588223807309,146.73483638904895
47.763,47.763,337.46793626954906,311.2326609844335,146.81805932798846
47.7698,47.7698,337.53711268316766,311.3103252970999,146.89683448052358
47.7765,47.7765,337.59992408798433,311.3842946541869,146.9741177424602
47.7833,47.7833,337.65159939809945,311.4484666312023,147.05066505268243
47.79,47.79,337.6904163487435,311.49842202015384,147.12520691201715
47.7968,47.7968,337.71682529480876,311.531173301471,147.19595412360732
47.8035,47.8035,337.7308497567389,311.5450418780001,147.26219252020206
47.8103,47.8103,337.73159014952154,311.5504971300508,147.32448514065092
47.817,47.817,337.74460521741764,311.57484275483773,147.38318306432762
47.8238,47.8238,337.7712077698704,311.61677036383605,147.43707810871467
47.8305,47.8305,337.8104994843444,311.6735013254604,147.48371627163672
47.8373,47.8373,337.85892115314414,311.7403244897038,147.52040274294183
47.844,47.844,337.908363594837,311.8105159604599,147.54504507691377
47.8508,47.8508,337.9471556645391,311.87564702286187,147.55729057977766
47.8575,47.8575,337.9637334844356,311.9268276564684,147.55978779783703
47.8643,47.8643,337.9770280464824,311.9570095482165,147.56087227818244
47.871,47.871,338.0220382557732,311.9633380073409,147.5651103273122
47.8778,47.8778,338.09481779762586,311.97832088709066,147.58427353114706
47.8845,47.8845,338.18660841841995,312.00706944789863,147.62615248872626
47.8913,47.8913,338.28525414291164,312.0388523443477,147.69487640904035
47.898,47.898,338.37730600039646,312.06252528803293,147.79046716754937
47.9048,47.9048,338.45099590249583,312.06947694666655,147.90975797305185
47.9115,47.9115,338.49930416917215,312.0830938890209,148.04793928047147
47.9183,47.9183,338.52175002321565,312.11539802523976,148.1999168519808
47.925,47.925,338.5241128487899,312.15917317126,148.36112748566288
47.9318,47.9318,338.5318112756789,312.20341841277644,148.52790036680582
47.9385,47.9385,338.53813319167654,312.23562553547384,148.69758568986873
47.9453,47.9453,338.54322652913555,312.24417540045334,148.86861640194323
47.952,47.952,338.56619439587297,312.2680371545042,149.04056081874734
47.9588,47.9588,338.60881381862043,312.32892977766966,149.2140575412346
47.9655,47.9655,338.6681996486721,312.4268986045669,149.39048719117247
47.9723,47.9723,338.7378435051926,312.5578330362476,149.571454397999
47.979,47.979,338.8096512736692,312.71440614952013,149.7582519188098
47.9858,47.9858,338.8763589166475,312.8869165769903,149.9512924296132
47.9925,47.9925,338.93315583573076,313.0639863154329,150.149504078209
47.9993,47.9993,338.9783450966318,313.233706431825,150.34989108513057
48.006,48.006,339.01372219660595,313.38546304481264,150.54729779082635
48.0128,48.0128,339.0444196533377,313.51218565439694,150.73429158104435
48.0195,48.0195,339.07759864233446,313.61251874524504,150.90154771526406
48.0263,48.0263,339.1205183578185,313.6920435289014,151.03926336590425
48.033,48.033,339.17900511509015,313.76286631952587,151.1394565958899
48.0398,48.0398,339.2568274121896,313.8417211004696,151.1984326490116
48.0465,48.0465,339.3560185249645,313.9472455148038,151.21861429684165
48.0533,48.0533,339.47784107508727,314.09707712863417,151.2281547094033
48.06,48.06,339.6238010039974,314.305244070677,151.2527757827873
48.0668,48.0668,339.79615222651495,314.5801773184833,151.27479045617667
48.0735,48.0735,339.99772765003144,314.9236826340367,151.2768391989332
48.0803,48.0803,340.2313793761752,315.3312498109104,151.30840247205762
48.087,48.087,340.4994380759528,315.79377402025904,151.38095462239974
48.0938,48.0938,340.8033855179764,316.3001262741549,151.49450473582488
48.1005,48.1005,341.14362138046687,316.8395440953465,151.6421828349473
48.1073,48.1073,341.51904269811,317.403044959601,151.81164655098033
48.114,48.114,341.92640599011384,317.98354304584615,151.98629594076968
48.1208,48.1208,342.3585361388853,318.57240274435924,152.14399433478465
48.1275,48.1275,342.7959231135058,319.1476887409692,152.24999937905957
48.1343,48.1343,343.18769332356516,319.656050837328,152.25127908004208
48.141,48.141,343.43754911745,320.0028275283309,152.41001421927206
48.1478,48.1478,343.45237698546595,320.0665569148122,152.74773292086107
48.1545,48.1545,343.82933150119146,320.39338931091993,153.2205673584465
48.1613,48.1613,344.5927758462722,321.1564165541091,153.73446989428896
48.168,48.168,345.68071957906596,322.31204229798766,154.18334143081296
48.1748,48.1748,346.9639622897543,323.7334059735684,154.4840728967845
48.1815,48.1815,348.28048341890377,325.2411600794641,154.59655674248376
48.1883,48.1883,349.47177031522983,326.64376922457404,154.66446962555722
48.195,48.195,350.4133682511689,327.7757245890817,154.86574942303287
48.2018,48.2018,351.03435637180945,328.52603653655314,155.1316663728656
48.2085,48.2085,351.32251227447153,328.85263078118265,155.39020628709187
48.2153,48.2153,351.329021393893,328.9233434851288,155.5804144535512
48.222,48.222,351.5582951203986,329.3093891457417,155.6614063248577
48.2288,48.2288,351.9233566164474,329.8944212713918,155.70669651219967
48.2355,48.2355,352.3383831027731,330.55207526264957,155.87284956055026
48.2423,48.2423,352.7306399718597,331.1682755408061,156.13732524966665
48.249,48.249,353.04754872185686,331.6571759811944,156.467768167905
48.2558,48.2558,353.2589035199006,331.96872378333916,156.82909921417752
48.2625,48.2625,353.3552499043836,332.08869258671086,157.18891566027202
48.2693,48.2693,353.36633236939946,332.14383157688263,157.52070460291608
48.276,48.276,353.46473440562505,332.3350690504005,157.80524889952665
48.2828,48.2828,353.62257194605195,332.6105594070714,158.03094076613507
48.2895,48.2895,353.80887480203404,332.9154707403959,158.19355326749522
48.2963,48.2963,353.99392048329145,333.2005211233034,158.29568247274273
48.303,48.303,354.15308319954283,333.4281103354372,158.3457614676656
48.3098,48.3098,354.2699606569869,333.5756457222823,158.35642609672936
48.3165,48.3165,354.33828964219003,333.6360869345805,158.37034692257697
48.3233,48.3233,354.3619693353638,333.65612691083106,158.39366350945082
48.33,48.33,354.3709558439166,333.7396848248248,158.41287433517127
48.3368,48.3368,354.3956063153925,333.86323002440497,158.4188363891069
48.3435,48.3435,354.4172406995223,334.00087887510904,158.4290016596392
48.3503,48.3503,354.41949270936215,334.12860525003435,158.45279330616796
48.357,48.357,354.44687859995264,334.2276178301267,158.48578094728697
48.3638,48.3638,354.5061663311263,334.28670025782054,158.52479986321387
48.3705,48.3705,354.59215954725425,334.30322511465766,158.5690727607632
48.3773,48.3773,354.694144804682,334.32405841076337,158.61998361759
48.384,48.384,354.7982236957037,334.37137730712925,158.68022755359704
48.3908,48.3908,354.8899871540146,334.4312918697206,158.75224913939144
48.3975,48.3975,354.9575291474706,334.48960862893847,158.83640078274348
48.4043,48.4043,354.99401364344783,334.5344292057967,158.92979604647758
48.411,48.411,354.99872898709384,334.5581582440959,159.026432227684
48.4178,48.4178,355.02113008977045,334.5583800657665,159.11837050480713
48.4245,48.4245,355.06246512857547,334.57927076566307,159.19729633854405
48.4313,48.4313,355.11302707543024,334.61532845832954,159.2558724460951
48.438,48.438,355.1633922753026,334.6586904292288,159.28866768171306
48.4448,48.4448,355.2059549474596,334.70122312131144,159.2927469645905
48.4515,48.4515,355.2360274078299,334.73599447190816,159.31746866313472
48.4583,48.4583,355.2522671292419,334.7583902342993,159.36817777540736
48.465,48.465,355.2562774237653,334.7666926595024,159.4395251277817
48.4718,48.4718,355.26102615587104,334.7713108946057,159.52439740057704
48.4785,48.4785,355.27050363282774,334.7852967372663,159.6149711109624
48.4853,48.4853,355.2812185038807,334.8036203350252,159.70382407424287
48.492,48.492,355.29092263778307,334.8209124044833,159.78486174849914
48.4988,48.4988,355.2988806029341,334.8325630258572,159.85388101022386
48.5055,48.5055,355.30568704264584,334.8355046130859,159.9087265062087
48.5123,48.5123,355.31278091519675,334.8424465846111,159.94914206893804
48.519,48.519,355.3220116520385,334.85860203895567,159.9764305513169
48.5258,48.5258,355.33549282138625,334.881811297442,159.99294883125367
48.5325,48.5325,355.3556668264938,334.9089461201706,160.00152052585213
48.5393,48.5393,355.3853801686271,334.9364261386205,160.0050020368593
48.546,48.546,355.42773644608184,334.96061326795024,160.00617389397593
48.5528,48.5528,355.4855021171888,334.9780714068198,160.00781831911763
48.5595,48.5595,355.56009983712426,334.98579363610685,160.01257605926116
48.5663,48.5663,355.65045922455806,334.99002852232985,160.02233310077233
48.573,48.573,355.752148998059,335.0072366501692,160.03739692676092
48.5798,48.5798,355.8576223983232,335.0372251924656,160.05586496685456
48.5865,48.5865,355.9582726324493,335.079387725149,160.073303683164
48.5933,48.5933,356.0476784059947,335.1339109118353,160.08265533047705
48.6,48.6,356.1242940773547,335.2024338150288,160.09094351857055
48.6068,48.6068,356.19217551249164,335.2875421772705,160.12819480584193
48.6135,48.6135,356.2595805743873,335.39147357086944,160.20572033671758
48.6203,48.6203,356.3366608659583,335.5152380214432,160.332124092687
48.627,48.627,356.43390395308086,335.6589949159672,160.51041168006557
48.6338,48.6338,356.56152626001625,335.82287284868727,160.73586344810585
48.6405,48.6405,356.7281247008155,336.00618996301927,160.99566650410176
48.6473,48.6473,356.9358649549702,336.2042452944413,161.2702258862613
48.654,48.654,357.1723983820537,336.40479779820316,161.53536260651967
48.6608,48.6608,357.40622425416234,336.586890646791,161.76551012985865
48.6675,48.6675,357.5901095205289,336.72199334143994,161.93725507905933
48.6743,48.6743,357.6679866465409,336.7761052351966,162.03161938132487
48.681,48.681,357.7548920963967,336.8399348629381,162.0353645827123
48.6878,48.6878,358.0609836236097,337.0588431954712,162.12839764978293
48.6945,48.6945,358.6267018609696,337.4668555074963,162.31611211448146
48.7013,48.7013,359.4678484238478,338.0901599208078,162.5876400188156
48.708,48.708,360.5669642869076,338.94101534954564,162.923663994244
48.7148,48.7148,361.87115211198176,340.012036538851,163.29760868777007
48.7215,48.7215,363.2997038929383,341.2723208357577,163.67771292986413
48.7283,48.7283,364.7580048231778,342.6634913066285,164.02787421691337
48.735,48.735,366.1454492890233,344.09234107708244,164.30431667875783
48.7418,48.7418,367.3491601297035,345.42381079029497,164.4540823173362
48.7485,48.7485,368.2348333767549,346.4865913410897,164.4797204164346
48.7553,48.7553,368.6593662034137,347.1015519015218,164.69651409950055
48.762,48.762,368.80438583584714,347.1293039752468,165.06429680367052
48.7688,48.7688,369.54280917373126,347.74092450784104,165.4924633579024
48.7755,48.7755,370.79139664870274,348.9313713525934,165.87086641931916
48.7823,48.7823,372.37500752853407,350.5341809497634,166.1040604302952
48.789,48.789,374.0681156245633,352.3126947405402,166.1344176508399
48.7958,48.7958,375.6453275778169,354.0129962879677,166.31792843742002
48.8025,48.8025,376.92613872596274,355.418104184308,166.6845647194427
48.8093,48.8093,377.8044598263768,356.38762528023153,167.175165334566
48.816,48.816,378.25833345966805,356.87402287946287,167.7172542017742
48.8228,48.8228,378.3403751526579,356.91626820666164,168.23827213799058
48.8295,48.8295,378.52661367546136,357.21487753385827,168.6758050046856
48.8363,48.8363,378.8569672655048,357.7160678569097,168.98399363814644
48.843,48.843,379.21480433298433,358.275469621683,169.13629394580002
48.8498,48.8498,379.50881917765537,358.7661942575155,169.14668522943313
48.8565,48.8565,379.67943675085485,359.09458910549796,169.3081826639498
48.8633,48.8633,379.69945213852657,359.20709967330254,169.59434439848243
48.87,48.87,379.8264478154795,359.32447905915956,169.96900343023685
48.8768,48.8768,380.07003336907877,359.6511664112896,170.39128318722115
48.8835,48.8835,380.3785239939818,360.14053004965183,170.8193680227467
48.8903,48.8903,380.68469623109945,360.7322539795633,171.21323911323051
48.897,48.897,380.9122083236372,361.3661014460105,171.53762297482297
48.9038,48.9038,380.9843387383752,361.9928782885972,171.7660685899633
48.9105,48.9105,381.1323136491262,362.5800437295182,171.8851046299852
48.9173,48.9173,381.5376262977612,363.1120224637791,171.89616497071594
48.924,48.924,382.1968189880674,363.5866916530843,171.97840074499823
48.9308,48.9308,383.06308170031355,364.01003439053346,172.13065525174974
48.9375,48.9375,384.0573549466021,364.39072134036195,172.3268150406065
48.9443,48.9443,385.0879175428402,364.7352947806487,172.54278849651962
48.951,48.951,386.06922191032294,365.0440625247651,172.759231889099
48.9578,48.9578,386.93351109226603,365.3084396217696,172.9621900177513
48.9645,48.9645,387.63455756169384,365.5108385131883,173.142482617446
48.9713,48.9713,388.1466807306438,365.6273115429716,173.29457681298248
48.978,48.978,388.4620983371552,365.6318577226923,173.41532573716887
48.9848,48.9848,388.58771432327796,365.7629710649231,173.5027454595488
48.9915,48.9915,388.63419745921027,366.0481027110064,173.55496921502058
48.9983,48.9983,388.82890476575034,366.49857267972027,173.56957979617326
49.005,49.005,389.1466014845858,367.1178669122918,173.5956705296425
49.0118,49.0118,389.56485180126305,367.9011601665051,173.6658713727225
49.0185,49.0185,390.06698830113567,368.8351261743778,173.78339405975913
49.0253,49.0253,390.64359162253567,369.8984170005432,173.9508042525704
49.032,49.032,391.29210871320987,371.0632028016284,174.16964638596332
49.0388,49.0388,392.01443830554564,372.29771923344686,174.4399896488945
49.0455,49.0455,392.8133546518311,373.56938578915936,174.75986877110802
49.0523,49.0523,393.68960058869817,374.8479990058205,175.12490237803712
49.059,49.059,394.64024788886564,376.10829386901304,175.5283203626692
49.0658,49.0658,395.65717199193483,377.3309942428337,175.96137418783752
49.0725,49.0725,396.7253448388088,378.50196262972435,176.4140282292026
49.0793,49.0793,397.8219346388683,379.60997040530054,176.87570912703598
49.086,49.086,398.9166950247482,380.6441943747754,177.33589647531366
49.0928,49.0928,399.9735188412747,381.59242161105584,177.78455249053542
49.0995,49.0995,400.9531679460655,382.4403857166555,178.21242299476492
49.1063,49.1063,401.8172266395076,383.17221680340907,178.61123663516503
49.113,49.113,402.5327280880096,383.77186464464035,178.9738083561822
49.1198,49.1198,403.0762032217903,384.22522172205726,179.29388265500484
49.1265,49.1265,403.4370960242559,384.52294819117446,179.56600405194771
49.1333,49.1333,403.6166011790033,384.6639224221933,179.78373176174145
49.14,49.14,403.62406201553165,384.67228021191926,179.92997721569057
49.1468,49.1468,403.87446584786585,384.82457953690687,179.9569408641211
49.1535,49.1535,404.5214754722439,385.14323512998567,180.1453735525044
49.1603,49.1603,405.8010756277733,385.7026304046594,180.67797252223366
49.167,49.167,407.90664797169427,386.6095089868802,181.65068533002233
49.1738,49.1738,410.82830811330615,387.92971448299113,183.05424829239982
49.1805,49.1805,414.2915580761326,389.62354667918436,184.7559515932482
49.1873,49.1873,417.83812358412325,391.5485136115902,186.53917465040126
49.194,49.194,420.9781773476538,393.5164456947659,188.16491055102645
49.2008,49.2008,423.32435027763506,395.35633040815736,189.42852136613632
49.2075,49.2075,424.664949154384,396.95099378536776,190.19861830159562
49.2143,49.2143,424.97552991536384,398.2433876446413,190.43349950083257
49.221,49.221,425.56411898243977,399.22491008885595,190.68934599252776
49.2278,49.2278,426.81837799575976,399.9197938867668,191.32421556554976
49.2345,49.2345,428.458391953434,400.37183246437866,192.1885558789443
49.2413,49.2413,430.2081905124862,400.63324734034865,193.1271599691283
49.248,49.248,431.8346240831299,400.7551567551508,194.0068626598065
49.2548,49.2548,433.1712451284121,400.78081857927344,194.73520212743315
49.2615,49.2615,434.1262347275479,400.81914863700484,195.26745777061717
49.2683,49.2683,434.67638804220235,400.90061482988466,195.60247920578408
49.275,49.275,434.85185737228477,401.0148899149458,195.77113228589258
49.2818,49.2818,434.9862995493274,401.16056704740276,195.82216580955773
49.2885,49.2885,435.34912713502746,401.3426191488174,195.83497383465524
49.2953,49.2953,435.8569311753464,401.5690058429997,195.86229645294733
49.302,49.302,436.43523531640056,401.8470403760932,195.86497331405047
49.3088,49.3088,437.0246535729752,402.1803473990535,195.91351601695283
49.3155,49.3155,437.58273529029515,402.56707708289014,196.0273753335706
49.3223,49.3223,438.082852677436,402.9996068340418,196.20996077537905
49.329,49.329,438.5116710437086,403.4652877560545,196.45658795055633
49.3358,49.3358,438.8650534955061,403.94611546148946,196.75765355353678
49.3425,49.3425,439.13897464500275,404.41424384410317,197.10280665132387
49.3493,49.3493,439.3148497690086,404.82376517945613,197.4836647857357
49.356,49.356,439.3475905904656,405.10455371367385,197.8914410477676
49.3628,49.3628,439.5308452708987,405.16660938783366,198.31247268758216
49.3695,49.3695,440.0167786095841,405.41298855953426,198.7265349071912
49.3763,49.3763,440.8725887164205,406.0264548687158,199.1069333684069
49.383,49.383,442.1055267905729,407.00742422733765,199.4221029789134
49.3898,49.3898,443.6414962406924,408.28639095980236,199.64128582829244
49.3965,49.3965,445.3344176299391,409.7311869280023,199.74307017141115
49.4033,49.4033,446.9989714846955,411.1702641991107,199.7636252830784
49.41,49.41,448.4533167608794,412.4260921842412,199.892328110756
49.4168,49.4168,449.5576346170133,413.3505315157054,200.09845254446577
49.4235,49.4235,450.2376653532938,413.8528879081528,200.34160433771214
49.4303,49.4303,450.48999964007857,413.91361324977544,200.5807284067929
49.437,49.437,450.6075242084857,414.2452957920691,200.78263602413634
49.4438,49.4438,450.9944680001127,414.8667617856076,200.92759962065747
49.4505,49.4505,451.5299701525598,415.6452585798282,201.01039234516534
49.4573,49.4573,452.0940065763273,416.44338106364626,201.03710119283525
49.464,49.464,452.58429816358466,417.14138112769825,201.0538023138348
49.4708,49.4708,452.92723853946785,417.6533391781364,201.09821147649507
49.4775,49.4775,453.0834721790434,417.9365088847496,201.1538185998608
49.4843,49.4843,453.11763708276294,417.99322136083356,201.2055196090399
49.491,49.491,453.3133002137118,418.1219139325715,201.2420794539265
49.4978,49.4978,453.6177355656452,418.37009431579344,201.25800537563157
49.5045,49.5045,453.96831403545053,418.6644062660462,201.2614948274814
49.5113,49.5113,454.3079607677024,418.9397410387668,201.27606568161963
49.518,49.518,454.59650107077033,419.15085327400783,201.28684942474916
49.5248,49.5248,454.813107015624,419.2802039859159,201.2980331151144
49.5315,49.5315,454.9498172649228,419.3408110627418,201.34635053559478
49.5383,49.5383,455.0001132805142,419.3719248401742,201.43694076439846
49.545,49.545,455.0532022244918,419.42793556784727,201.56058814528708
49.5518,49.5518,455.24200102921503,419.5637801678262,201.69510810933963
49.5585,49.5585,455.6037584346507,419.8208420272304,201.8132637481039
49.5653,49.5653,456.15804119600176,420.21651771911144,201.89271875523494
49.572,49.572,456.8878902755918,420.7394831137547,201.92170967059963
49.5788,49.5788,457.737934801427,421.35160409615787,201.94442958225974
49.5855,49.5855,458.62852373842406,421.9958077017103,202.01232131022553
49.5923,49.5923,459.47516872405384,422.6070748393022,202.11345685187823
49.599,49.599,460.2036114225567,423.12273281931033,202.2317649326436
49.6058,49.6058,460.75722156386803,423.48949523506656,202.34804162870125
49.6125,49.6125,461.09846186151964,423.6668595554928,202.44172702840902
49.6193,49.6193,461.2073804414193,423.7059173724641,202.49333904798254
49.626,49.626,461.33596229127687,423.9759019415292,202.49997837041815
49.6328,49.6328,461.69630244137073,424.4808188791919,202.576415416627
49.6395,49.6395,462.2765492797522,425.21678625985066,202.72931466970715
49.6463,49.6463,463.06344613484646,426.1744588073851,202.96101910247626
49.653,49.653,464.04493238026487,427.34024359071145,203.27028751001194
49.6598,49.6598,465.2089333147052,428.6955928557241,203.65257683414723
49.6665,49.6665,466.53836047995924,430.21478754644,204.0997468304161
49.6733,49.6733,468.00455456121864,431.8624537249595,204.59956035047733
49.68,49.68,469.5623089809042,433.59169484459096,205.13544982461616
49.6868,49.6868,471.14901911431434,435.3436432359084,205.6869424232564
49.6935,49.6935,472.68934301162875,437.04969678431695,206.2310578703944
49.7003,49.7003,474.1040243997088,438.63859161664504,206.7445611198261
49.707,49.707,475.3023782843782,440.04438003287373,207.19719128273982
49.7138,49.7138,476.13941584734886,441.1956224305274,207.5231803852005
49.7205,49.7205,476.39475987102327,441.98591859717834,207.6012623527955
49.7273,49.7273,476.94601192822586,442.2746469834848,207.91240973864532
49.734,49.734,478.4147133328498,442.6057437279046,208.70588181040398
49.7408,49.7408,480.71950706547193,443.5804882740259,209.9799758419609
49.7475,49.7475,483.5876499694348,445.08919482008446,211.6297302588796
49.7543,49.7543,486.6308027403223,446.90747330482037,213.47468422366106
49.761,49.761,489.451097435739,448.7654798281634,215.3086065192693
49.7678,49.7678,491.7281315132051,450.42411474263656,216.94457675474953
49.7745,49.7745,493.2705479773014,451.72079108024786,218.24411720565487
49.7813,49.7813,494.03122867532784,452.5820027731317,219.132628978922
49.788,49.788,494.0884047968515,453.01548459979495,219.60099293558065
49.7948,49.7948,494.5722358641728,453.09103361635465,219.69360546522805
49.8015,49.8015,495.3965103662387,453.2668690009143,219.89857346547046
49.8083,49.8083,496.36164941646507,453.57691120982435,220.3090381252335
49.815,49.815,497.2966563772965,453.91512843819487,220.83419572261542
49.8218,49.8218,498.07592744887245,454.20093057004607,221.39424717410583
49.8285,49.8285,498.6265498690915,454.38554927893387,221.92612368251176
49.8353,49.8353,498.926590320742,454.45183917388226,222.38631572171883
49.842,49.842,498.9957579316555,454.4944096265551,222.75095637677344
49.8488,49.8488,499.1100020826402,454.6177515542342,223.0136896244884
49.8555,49.8555,499.3472794674298,454.7841358753677,223.1823590441569
49.8623,49.8623,499.6472750913159,454.95438501285537,223.2750053641498
49.869,49.869,499.9593821496402,455.094176641277,223.3152205807783
49.8758,49.8758,500.2485335736951,455.178008006706,223.3273030554474
49.8825,49.8825,500.49724329011457,455.1907967935097,223.33210978132348
49.8893,49.8893,500.7042705647669,455.254217998553,223.3443854480735
49.896,49.896,500.88088324516644,455.3912228807438,223.37179327767186
49.9028,49.9028,501.04609585798033,455.59437390131507,223.4153708066154
49.9095,49.9095,501.2221030901899,455.85437902194366,223.47094253121577
49.9163,49.9163,501.43072056300775,456.16244542274336,223.53101608228025
49.923,49.923,501.69121306041154,456.5119114005467,223.58672801834237
49.9298,49.9298,502.01927308516207,456.8990931760474,223.62948748011027
49.9365,49.9365,502.42633610051445,457.3232389593924,223.6522445006328
49.9433,49.9433,502.9184340851984,457.7857375927664,223.65397429634427
49.95,49.95,503.4946018819254,458.28900364813285,223.6814568223942
49.9568,49.9568,504.1455540714386,458.8354708632433,223.73264949909833
49.9635,49.9635,504.8530830519691,459.42675501670965,223.8024429481288
49.9703,49.9703,505.5901918112004,460.0623808668006,223.88296233295935
49.977,49.977,506.32239583290794,460.73677060290214,223.96389826748978
49.9838,49.9838,507.0096757687733,461.43221140131106,224.0313072540447
49.9905,49.9905,507.6039974232438,462.106029068263,224.06234310216252
49.9973,49.9973,508.03723329859747,462.67483720148124,224.1044079366689
50.004,50.004,508.20872737103895,463.00762725627607,224.2635701016025
50.0108,50.0108,508.4206886934602,463.06940709520467,224.57002531232516
50.0175,50.0175,509.113234218854,463.6609227695207,225.01790174207102
50.0243,50.0243,510.3047460104565,464.8365612682391,225.55946509597246
50.031,50.031,511.9097286481471,466.5355519831667,226.11939713521625
50.0378,50.0378,513.7555170153787,468.5823258874095,226.61636531688262
50.0445,50.0445,515.6266395434402,470.7213354713472,226.98074177466623
50.0513,50.0513,517.3165000455101,472.67858587255154,227.16716254590767
50.058,50.058,518.6717740146039,474.2295058275056,227.17200248336337
50.0648,50.0648,519.6193939882717,475.2478411498591,227.34751944876942
50.0715,50.0715,520.1703742143436,475.7214196645176,227.6442843998403
50.0783,50.0783,520.401710176266,475.7350701141086,227.99567261253097
50.085,50.085,520.4234302984706,476.040107165806,228.33356934451024
50.0918,50.0918,520.5060561013166,476.5148868324566,228.60364982350947
50.0985,50.0985,520.6239382890487,477.0426468276795,228.77604230406465
50.1053,50.1053,520.7595061734168,477.55913359573475,228.84900964257943
50.112,50.112,520.9431641013964,478.0528250984105,228.85225860450288
50.1188,50.1188,521.2362388786116,478.55155633405724,228.89164465298435
50.1255,50.1255,521.7080933254592,479.10382163518545,228.92103054106914
50.1323,50.1323,522.4134104207338,479.7613079295751,228.94252369139298
50.139,50.139,523.3744678103319,480.5657684414806,229.04135370021876
50.1458,50.1458,524.5726268313414,481.5404486451754,229.22449368813778
50.1525,50.1525,525.9510699427254,482.6853983789889,229.47891827927316
50.1593,50.1593,527.4259622527027,483.97445804284376,229.77413459848174
50.166,50.166,528.8963915162846,485.3488152907518,230.0636800517836
50.1728,50.1728,530.2413791606473,486.7053990239885,230.2844612402997
50.1795,50.1795,531.3097228255615,487.8886377924821,230.36553388633232
50.1863,50.1863,531.9314412954283,488.70175656122433,230.47245633395977
50.193,50.193,531.9664744638928,488.9504647579699,230.75652392579062
50.1998,50.1998,532.5682875513621,489.3901516047036,231.13924647777984
50.2065,50.2065,533.7369535847175,490.5129734236676,231.5036654935406
50.2133,50.2133,535.2969370388897,492.1682712329276,231.7399502155419
50.22,50.22,537.0125287692434,494.0966050091024,231.7829078225899
50.2268,50.2268,538.6417779168607,496.0001588222523,231.9376879859802
50.2335,50.2335,539.983066514992,497.61415463106454,232.24094221825217
50.2403,50.2403,540.9070707594817,498.755848181635,232.612122107894
50.247,50.247,541.3717428406206,499.3458029466241,232.96563133484162
50.2538,50.2538,541.4187886318044,499.4057950418879,233.2320934970357
50.2605,50.2605,541.6852499013135,499.7727231943133,233.37013117511276
50.2673,50.2673,542.1309474716652,500.413766164691,233.371783050022
50.274,50.274,542.6235634070882,501.1614664116864,233.49925730811157
50.2808,50.2808,543.0561701069707,501.8647820980447,233.72219474239358
50.2875,50.2875,543.3592204938071,502.41078847885814,234.00300284264802
50.2943,50.2943,543.5024865992721,502.7350064646549,234.3049344293997
50.301,50.301,543.5149012952863,502.82147991025255,234.59817813498492
50.3078,50.3078,543.6533934398134,502.947613889114,234.86343819558397
50.3145,50.3145,543.8731869430062,503.2320871186954,235.09265910652616
50.3213,50.3213,544.1243258469838,503.6052988532423,235.28712067548474
50.328,50.328,544.3600973181863,503.9957915985396,235.4537993817638
50.3348,50.3348,544.5433793536628,504.3417733658725,235.60128185426987
50.3415,50.3415,544.6507548941803,504.59932126774635,235.73649698153022
50.3483,50.3483,544.6743135772658,504.7463516603374,235.86297400589123
50.355,50.355,544.7275027072312,504.78231713038446,235.9805961509677
50.3618,50.3618,544.8381431178651,504.8401496048853,236.0863815056996
50.3685,50.3685,544.9791969060495,504.96248029440824,236.17570823681518
50.3753,50.3753,545.1211562127024,505.11446354764144,236.2435354180792
50.382,50.382,545.2370350150287,505.2618806825473,236.28544025394405
50.3888,50.3888,545.3062741673251,505.376324020869,236.29843380939545
50.3955,50.3955,545.3171618672385,505.43887072160703,236.31543271083282
50.4023,50.4023,545.3667037124975,505.44180525404647,236.36159036739534
50.409,50.409,545.4699660239615,505.495333318331,236.43451142911928
50.4158,50.4158,545.6135105263947,505.59329163063666,236.5307057330462
50.4225,50.4225,545.7797018862551,505.7177017658408,236.64601218870857
50.4293,50.4293,545.9492567324368,505.84800409472666,236.7759422473793
50.436,50.436,546.1037287461558,505.96448222861795,236.9159668637472
50.4428,50.4428,546.2278579968338,506.0513088902528,237.06178903894292
50.4495,50.4495,546.3115463334249,506.09870111264223,237.20961754398544
50.4563,50.4563,546.3511358036282,506.1038202158095,237.35640819056724
50.463,50.463,546.3525193467162,506.13725700501243,237.5000141990945
50.4698,50.4698,546.3856602821243,506.20037723419847,237.6392034816453
50.4765,50.4765,546.4369149376606,506.2811328172842,237.7734861963517
50.4833,50.4833,546.4906018061664,506.36641942313014,237.90272105242505
50.49,50.49,546.531688350824,506.444086674531,238.02640930807502
50.4968,50.4968,546.5485472369119,506.5046637160202,238.14296186497708
50.5035,50.5035,546.5619745511328,506.54219548487396,238.25006581586302
50.5103,50.5103,546.6068813223596,506.55386701338267,238.34643333314898
50.517,50.517,546.6825051079675,506.568515707602,238.43360880793637
50.5238,50.5238,546.7868905443867,506.60819375479366,238.5159313930141
50.5305,50.5305,546.915773083347,506.6704300437297,238.597778640161
50.5373,50.5373,547.0628678823438,506.7520055103645,238.6804795810095
50.544,50.544,547.2207229813193,506.8490955893747,238.76155185969037
50.5508,50.5508,547.3800657194062,506.9571989251641,238.83551504097562
50.5575,50.5575,547.5288005067302,507.07105311199837,238.89510127675322
50.5643,50.5643,547.6534222212642,507.18495548496844,238.93326879910387
50.571,50.571,547.7430559357301,507.29365957745085,238.94612429515917
50.5778,50.5778,547.793035126206,507.39346613702486,238.95675878720064
50.5845,50.5845,547.805543346519,507.4829500323724,238.98280327524105
50.5913,50.5913,547.8231204540341,507.5629650126301,239.01183659850187
50.598,50.598,547.8602597768587,507.6360064178632,239.0303887533122
50.6048,50.6048,547.9048888285325,507.70527489232757,239.0336175116195
50.6115,50.6115,547.9447418523798,507.77355899795526,239.06569353410714
50.6183,50.6183,547.9692543877263,507.84196434409176,239.1290722135414
50.625,50.625,547.9721531542359,507.90884737449954,239.22251625908248
50.6318,50.6318,547.990737696087,507.969368504659,239.34235810002377
50.6385,50.6385,548.0239766005823,508.0157125761541,239.4835699443365
50.6453,50.6453,548.0599234791821,508.0378520849629,239.64066184416612
50.652,50.652,548.0840489743606,508.0508970988917,239.80843154322534
50.6588,50.6588,548.0861198874901,508.10944179201897,239.98240624551894
50.6655,50.6655,548.1260679034266,508.2215135785758,240.15894389459376
50.6723,50.6723,548.2109772521992,508.3916128877143,240.33517454772553
50.679,50.679,548.3423626497041,508.62011365315783,240.50884212370113
50.6858,50.6858,548.5163374598853,508.9032150074459,240.67808148733525
50.6925,50.6925,548.7251531298148,509.2327602100985,240.84136556653272
50.6993,50.6993,548.9591908776788,509.5955177026966,240.99750076728822
50.706,50.706,549.2079411511295,509.97304648423545,241.14535980283011
50.7128,50.7128,549.4605443660074,510.34344496309114,241.28371235281202
50.7195,50.7195,549.7072564861086,510.6846651775651,241.41129747034046
50.7263,50.7263,549.9411134015879,510.9783960899133,241.52649571079314
50.733,50.733,550.1582914954437,511.2135275956215,241.62666221757584
50.7398,50.7398,550.3571291639499,511.38790057009396,241.7080003615989
50.7465,50.7465,550.536866452569,511.5077395441827,241.7663386493065
50.7533,50.7533,550.6970034584522,511.58548944663306,241.7985781012293
50.76,50.76,550.8374054759921,511.63713348721797,241.80437915012502
50.7668,50.7668,550.9587253978275,511.6796332928845,241.82132006578613
50.7735,50.7735,551.0627379851046,511.72870643441547,241.85299777069
50.7803,50.7803,551.1524405702808,511.7969780677891,241.88795931582476
50.787,50.787,551.2318649671392,511.89263843264183,241.91304441854513
50.7938,50.7938,551.3055396236734,512.0188937482229,241.91566029053774
50.8005,50.8005,551.3778211680044,512.1744061878021,241.94518560761526
50.8073,50.8073,551.4526230960017,512.3546318724273,242.01171728809763
50.814,50.814,551.5337601742574,512.5537494003289,242.1142996966268
50.8208,50.8208,551.625505945746,512.76669166873,242.24620643560155
50.8275,50.8275,551.7327515178421,512.9905764785973,242.3959788889885
50.8343,50.8343,551.8604371912774,513.2249438525901,242.54910725402823
50.841,50.841,552.0124515377146,513.4708454915109,242.68995942267125
50.8478,50.8478,552.1905569720224,513.7294855750482,242.80359376019388
50.8545,50.8545,552.3937602123638,514.0011044077711,242.8770640791564
50.8613,50.8613,552.6172857665214,514.2828683907959,242.89904864810524
50.868,50.868,552.847629335688,514.5618661154012,242.94239559803083
50.8748,50.8748,553.0509929926028,514.8031555825243,243.07386454735945
50.8815,50.8815,553.1617272282988,514.9416504993745,243.32436591728884
50.8883,50.8883,553.237403513834,514.9958735655717,243.71571881838898
50.895,50.895,553.5936973755114,515.3353107484412,244.2351278835237
50.9018,50.9018,554.2848834827463,516.0197383665568,244.82423530992537
50.9085,50.9085,555.2968679716777,517.0440119583822,245.3940536557291
50.9153,50.9153,556.5458852547192,518.328623563183,245.85417336979518
50.922,50.922,557.8997301105079,519.7368858797545,246.13939093964422
50.9288,50.9288,559.2081742778229,521.1070512368557,246.2255622454022
50.9355,50.9355,560.3329387452778,522.28658597238,246.3185281838309
50.9423,50.9423,561.1725708924727,523.1602637958781,246.53565851662594
50.949,50.949,561.6779266042373,523.6669441110992,246.80376415351955
50.9558,50.9558,561.8540862545542,523.8034560441997,247.05010765223122
50.9625,50.9625,561.9586342121676,523.9894153345754,247.21732598482646
50.9693,50.9693,562.2692315703104,524.4138253800658,247.27147173227516
50.976,50.976,562.7022545637469,524.9745751628727,247.3397095046035
50.9828,50.9828,563.179003173785,525.5698112423048,247.51849992994323
50.9895,50.9895,563.6352190147942,526.1131982655813,247.78083614213037
50.9963,50.9963,564.025997801447,526.5437028709055,248.09146209460525
51.003,51.003,564.3265061694199,526.8290254591782,248.41368138306657
51.0098,51.0098,564.5295693916003,526.9636510678822,248.715094518936
51.0165,51.0165,564.6415835491135,526.9636917314784,248.97153622133197
51.0233,51.0233,564.6780975439646,527.0674544328236,249.16884062790055
51.03,51.03,564.6964331033286,527.2360193165656,249.30254820515256
51.0368,51.0368,564.7475153680438,527.4291007122548,249.37619868281496
51.0435,51.0435,564.8112716099341,527.6106841387659,249.39927298367908
51.0503,51.0503,564.8723092973595,527.7530554549941,249.413137502569
51.057,51.057,564.9202635653819,527.8391425317819,249.44828657908144
51.0638,51.0638,564.9491187603799,527.8634641714556,249.4899792602422
51.0705,51.0705,564.9580176696295,527.8956370125269,249.52718200306202
51.0773,51.0773,564.9642640531852,527.9711539089734,249.5538053011447
51.084,51.084,564.9776291163879,528.0728241110237,249.5675433498832
51.0908,51.0908,564.9907317642544,528.1830632269872,249.56761581662676
51.0975,51.0975,564.9991043087921,528.2867832621482,249.58244262953795
51.1043,51.1043,565.0013170713662,528.3732136704373,249.61295142855894
51.111,51.111,565.0040582012994,528.4367354956216,249.65959018388364
51.1178,51.1178,565.0079699709618,528.4770752697533,249.7217547405593
51.1245,51.1245,565.0088806352238,528.4989560919482,249.79685773215203
51.1313,51.1313,565.0217017954257,528.5108878460899,249.87942151826564
51.138,51.138,565.0531161599114,528.5230090449948,249.9610814996962
51.1448,51.1448,565.1079419220215,528.5445887875546,250.03178655362933
51.1515,51.1515,565.1879093967942,528.5819813493995,250.08163376223092
51.1583,51.1583,565.2909357333008,528.6374773105998,250.10260032667526
51.165,51.165,565.411262848477,528.7091619809097,250.11547567584566
51.1718,51.1718,565.5405773261424,528.7916986024298,250.16361028590018
51.1785,51.1785,565.6697988121765,528.8777669339526,250.24498646078294
51.1853,51.1853,565.7909590834573,528.9597368185832,250.35458238901938
51.192,51.192,565.8986460773168,529.0311520674533,250.48494859455843
51.1988,51.1988,565.990677517457,529.0877341119107,250.62694874809486
51.2055,51.2055,566.0678508999725,529.1278135066652,250.77070997586074
51.2123,51.2123,566.1329257143876,529.1522619746804,250.9067287025604
51.219,51.219,566.1893311156855,529.1640501337176,251.02696824795157
51.2258,51.2258,566.2401539124318,529.1675440005718,251.12570174395583
51.2325,51.2325,566.2877334799812,529.1676635685584,251.19989091534637
51.2393,51.2393,566.3337923466564,529.1690494894974,251.24903258028309
51.246,51.246,566.3796852351521,529.1753556723671,251.27458066025855
51.2528,51.2528,566.4263826546495,529.1887467015647,251.2792234485337
51.2595,51.2595,566.474181381368,529.2096995553351,251.29215149600896
51.2663,51.2663,566.522429196599,529.2371689116956,251.31902426734268
51.273,51.273,566.5695175986909,529.2690097071628,251.35608092774652
51.2798,51.2798,566.613177655557,529.3024503662011,251.39949135097123
51.2865,51.2865,566.6509245877018,529.334476107091,251.44547486672633
51.2933,51.2933,566.6804657252386,529.3621061360336,251.49054310359952
51.3,51.3,566.7000541349336,529.382618780445,251.53185626321957
51.3068,51.3068,566.7088725232699,529.3937492107029,251.5677277037095
51.3135,51.3135,566.7103684151343,529.3938264183107,251.59825370650486
51.3203,51.3203,566.7203733435749,529.4058390114047,251.62575877606324
51.327,51.327,566.7361490877676,529.4304412364316,251.65467033422956
51.3338,51.3338,566.7549969545553,529.4678646333424,251.69073523578408
51.3405,51.3405,566.7755046750012,529.518409063709,251.73970931869272
51.3473,51.3473,566.7986977137643,529.5828023448535,251.80596588933827
51.354,51.354,566.8289108467625,529.6628033881639,251.89165907222184
51.3608,51.3608,566.8740244892457,529.7618175451674,251.99626866830872
51.3675,51.3675,566.9444527236385,529.8843781383681,252.1160998745843
51.3743,51.3743,567.0500429264464,530.0335307728209,252.24406875627804
51.381,51.381,567.1946075969119,530.2065774204428,252.37014482886232
51.3878,51.3878,567.3700739116924,530.3908597622559,252.4826631586826
51.3945,51.3945,567.5528767269084,530.5615500954991,252.57016576828985
51.4013,51.4013,567.70411594231,530.6832682247582,252.6229277898747
51.408,51.408,567.775133614955,530.7162153336624,252.63403373096395
51.4148,51.4148,567.8329914718316,530.8075288317647,252.6682363130542
51.4215,51.4215,568.059706158279,531.0467274872651,252.74849052269084
51.4283,51.4283,568.4816341282445,531.4421108108758,252.8728384500389
51.435,51.435,569.1086650602532,531.9879261194664,253.03608811543143
51.4418,51.4418,569.9320986117389,532.6686759427322,253.22914010246356
51.4485,51.4485,570.923345270876,533.463151952794,253.4386586226996
51.4553,51.4553,572.0345543935432,534.3457455297245,253.64719159681164
51.462,51.462,573.201993460532,535.2842589435166,253.83337851639425
51.4688,51.4688,574.349246080373,536.2333912656583,253.97084720642545
51.4755,51.4755,575.3851041129694,537.1256939402746,254.02720383083403
51.4823,51.4823,576.199479024179,537.8675820774547,254.08339943331825
51.489,51.489,576.6719176973991,538.3489936515526,254.2635062199105
51.4958,51.4958,576.7015105618733,538.4685746204831,254.54039326295256
51.5025,51.5025,577.1572552725751,538.7714969041109,254.84993777941858
51.5093,51.5093,578.0582929550603,539.4929897560482,255.11321087650373
51.516,51.516,579.2860946586854,540.5585933135687,255.26201762978332
51.5228,51.5228,580.6717645019277,541.8354907191531,255.26879823910258
51.5295,51.5295,582.0340425558239,543.1572616055237,255.43856784645246
51.5363,51.5363,583.2139622299474,544.3549244577606,255.74646565013452
51.543,51.543,584.1003617362917,545.2879838955337,256.14424589034456
51.5498,51.5498,584.6445689140016,545.8688539320534,256.5732340019249
51.5565,51.5565,584.8621413691852,546.0752241775003,256.9764578827316
51.5633,51.5633,584.9030331962637,546.2023411264466,257.30726328922464
51.57,51.57,585.103236601268,546.5734670558613,257.534187619723
51.5768,51.5768,585.3580859608873,547.073399258323,257.64257332241965
51.5835,51.5835,585.5786276453354,547.5845302837901,257.6513872517249
51.5903,51.5903,585.7023652338419,548.0047460887646,257.76288878122193
51.597,51.597,585.710431157755,548.2580298300699,257.9544566815902
51.6038,51.6038,585.8599244765251,548.29980843761,258.2010460158893
51.6105,51.6105,586.1358409160939,548.479863165236,258.478642111427
51.6173,51.6173,586.4999663299204,548.8579042404436,258.76511238348877
51.624,51.624,586.8962668868671,549.3813838707608,259.0398466375916
51.6308,51.6308,587.2589472263612,549.980711263773,259.28304333535766
51.6375,51.6375,587.5205986872577,550.584487084843,259.47576588626185
51.6443,51.6443,587.6200463897484,551.1336505514871,259.601980491839
51.651,51.651,587.731026535685,551.5905291135577,259.65195097969524
51.6578,51.6578,588.0829790298549,551.9415463448404,259.67911357882366
51.6645,51.6645,588.6838075927141,552.1945500192311,259.77522450069904
51.6713,51.6713,589.5121895729782,552.3721884633337,259.9249489627228
51.678,51.678,590.5141652561448,552.5031384098919,260.109029805934
51.6848,51.6848,591.6094154110331,552.6136825647121,260.30789901786426
51.6915,51.6915,592.706872162807,552.721532829717,260.50466315325446
51.6983,51.6983,593.7221048014311,552.8322779625478,260.68672782985425
51.705,51.705,594.5890818981866,552.9382072865811,260.84599518249223
51.7118,51.7118,595.2644534839143,553.0193831783109,260.9780930171432
51.7185,51.7185,595.7268684155214,553.0466758807087,261.08113937315676
51.7253,51.7253,595.9742203120685,553.1072643099222,261.154393613495
51.732,51.732,596.0200574449792,553.2897766138778,261.19711834470934
51.7388,51.7388,596.1508721079198,553.6235569915925,261.2079182269814
51.7455,51.7455,596.4271459989867,554.1289435882703,261.2311744533789
51.7523,51.7523,596.8164328987335,554.8138223382682,261.2908928785345
51.759,51.759,597.2896122775127,555.67176174349,261.38902815775776
51.7658,51.7658,597.8245484078318,556.6824193444911,261.5265844864302
51.7725,51.7725,598.4082052047248,557.8141941800726,261.7037019227307
51.7793,51.7793,599.0365978408004,559.0282839149953,261.9202052090698
51.786,51.786,599.7127267594558,560.2832302165048,262.1760505185659
51.7928,51.7928,600.443368916171,561.5393765000891,262.4711055960005
51.7995,51.7995,601.2355694089571,562.7625626816018,262.8043090803715
51.8063,51.8063,602.0933106807369,563.9260873976988,263.17284154670153
51.813,51.813,603.0144696194814,565.0104131684844,263.57166980938433
51.8198,51.8198,603.9879118996957,566.001231336039,263.9933004747366
51.8265,51.8265,604.9912060802243,566.8871478623491,264.4277143122545
51.8333,51.8333,605.990512972749,567.6579704492876,264.86275515500444
51.84,51.84,606.9437025402727,568.3041399015426,265.28507912522605
51.8468,51.8468,607.8069653845785,568.8182208607554,265.68173708450547
51.8535,51.8535,608.542554693662,569.1999511114421,266.0415409237052
51.8603,51.8603,609.1157954945847,569.4610060220425,266.3504642312959
51.867,51.867,609.4622092679335,569.6165530973326,266.57232132634766
51.8738,51.8738,609.491456934147,569.6551808521954,266.6225034481661
51.8805,51.8805,610.1348586055611,569.8038259244582,266.87069724034393
51.8873,51.8873,611.6136733755659,570.2563169572504,267.5216490697815
51.894,51.894,613.971422960738,571.1028721322473,268.58278895595265
51.9008,51.9008,616.9907541177781,572.3374009789032,269.9449637613158
51.9075,51.9075,620.2461501390757,573.8541821973154,271.4175895326219
51.9143,51.9143,623.2443229617759,575.4997787247733,272.78393300535254
51.921,51.921,625.5685004717793,577.1296086244271,273.85402405580464
51.9278,51.9278,626.9703269264259,578.6377961235619,274.5024788858797
51.9345,51.9345,627.3943910812021,579.9600059894532,274.6864709673852
51.9413,51.9413,627.8390140039868,581.0643524102891,274.9285716341773
51.948,51.948,628.9338598239053,581.9420363371081,275.49514465940575
51.9548,51.9548,630.4105579876372,582.6003515655254,276.2487994639114
51.9615,51.9615,632.0027361410505,583.056780568693,277.0461236585681
51.9683,51.9683,633.4848821891945,583.3338096778326,277.76444532379173
51.975,51.975,634.695196677198,583.455509770661,278.32013762274005
51.9818,51.9818,635.5423319244961,583.4647378572707,278.6752562848951
51.9885,51.9885,635.9996278958803,583.5803216623453,278.8339445365687
51.9953,51.9953,636.0926021726548,583.7780234036182,278.8354699549185
52.002,52.002,636.3010952395957,584.0353090755469,278.94171219179634
52.0088,52.0088,636.7265392763401,584.3327392620673,279.09077529516895
52.0155,52.0155,637.2784017829057,584.6536572657557,279.22534879687936
52.0223,52.0223,637.8721182988032,584.9801989248541,279.2997123683352
52.029,52.029,638.4311657846852,585.285286516222,279.3181434938573
52.0358,52.0358,638.8788898429954,585.5241773853928,279.4499066574489
52.0425,52.0425,639.1318531065372,585.631501333178,279.7014594040959
52.0493,52.0493,639.1553018658279,585.7342193749756,280.0588827110235
52.056,52.056,639.5109025886702,586.1185708768095,280.48340847154304
52.0628,52.0628,640.2035627900422,586.8213199859,280.91671254791834
52.0695,52.0695,641.1772792045442,587.820832008042,281.29611397886885
52.0763,52.0763,642.3241051846932,589.0309864019839,281.5708390650694
52.083,52.083,643.5074090119384,590.3165420939134,281.712543090329
52.0898,52.0898,644.59139900374,591.5227453243848,281.7195879139203
52.0965,52.0965,645.4677266363025,592.5075177866396,281.8236994445767
52.1033,52.1033,646.0721844347065,593.1674598621403,281.997663614493
52.11,52.11,646.3894408543783,593.4538757876961,282.193151789769
52.1168,52.1168,646.447653393154,593.5301678984415,282.36511202070574
52.1235,52.1235,646.589065284406,593.9055372960541,282.4791082366584
52.1303,52.1303,646.8548883556988,594.4798186549796,282.51531331146157
52.137,52.137,647.169074200885,595.1375436276412,282.5613565794802
52.1438,52.1438,647.4659712389979,595.7687392355734,282.6811503870998
52.1505,52.1505,647.6962791361245,596.2850008125071,282.85773123623323
52.1573,52.1573,647.8283096345491,596.6285830896293,283.07017972294983
52.164,52.164,647.8465821044302,596.7750510785296,283.2969604244298
52.1708,52.1708,647.9432567653976,596.8181631360275,283.5183209948918
52.1775,52.1775,648.1432668307349,597.0153943020283,283.71822294753446
52.1843,52.1843,648.423908934741,597.3110724451172,283.8857855021552
52.191,52.191,648.7544788333279,597.6411854299953,284.0160856595372
52.1978,52.1978,649.1013550959733,597.9471135762897,284.1104587961118
52.2045,52.2045,649.4349731022,598.1874824604461,284.1767285392017
52.2113,52.2113,649.7370490119359,598.3451392773319,284.2292918031412
52.218,52.218,650.003085172792,598.4276756452588,284.287163111224
52.2248,52.2248,650.2356587614884,598.4623944887827,284.36816390907427
52.2315,52.2315,650.431879969967,598.4888203341558,284.48132252369123
52.2383,52.2383,650.5723922615409,598.5509546079794,284.6213010003564
52.245,52.245,650.6159641750187,598.6898564627671,284.76696268894983
52.2518,52.2518,650.7275332967228,598.9367836488709,284.8860650899069
52.2585,52.2585,651.0498924392275,599.3067798126222,284.946059579351
52.2653,52.2653,651.6091711420078,599.7933887591374,284.966957837501
52.272,52.272,652.3844576107161,600.3669424512287,285.07487928267994
52.2788,52.2788,653.3102274503291,600.9784788684957,285.26177955766457
52.2855,52.2855,654.2943014611128,601.5685562183897,285.50934832065536
52.2923,52.2923,655.2393689152029,602.0777780648436,285.79262774507913
52.299,52.299,656.0591264175838,602.4554158835123,286.08299941323617
52.3058,52.3058,656.6863669883771,602.6639043669403,286.351033508601
52.3125,52.3125,657.0747388033627,602.6791857149507,286.56950242786695
52.3193,52.3193,657.1972599734951,602.8699512659829,286.7162704975609
52.326,52.326,657.3508402873356,603.2715948412313,286.77621555167025
52.3328,52.3328,657.7774440522095,603.8838211433222,286.8109345570564
52.3395,52.3395,658.46492360115,604.7030569338747,286.94211675285476
52.3463,52.3463,659.3959536515938,605.7229415732692,287.16719184399705
52.353,52.353,660.5494551793503,606.9332786179027,287.4800674302518
52.3598,52.3598,661.898729352029,608.3176213629323,287.8708986270099
52.3665,52.3665,663.4074180942727,609.8503265976466,288.32562336505055
52.3733,52.3733,665.0256750612191,611.4942072197798,288.826061291967
52.38,52.38,666.6892859718517,613.1996079000517,289.3506177683672
52.3868,52.3868,668.3241227302573,614.9059438073965,289.87569761413084
52.3935,52.3935,669.8554790331832,616.5481303930943,290.37813891186045
52.4003,52.4003,671.199701034275,618.0647821658769,290.82739464411117
52.407,52.407,672.2148721949638,619.3892720216313,291.1514032648764
52.4138,52.4138,672.6682706826308,620.4197423796455,291.2097676112169
52.4205,52.4205,673.0378595804384,621.0122284436176,291.58683859234173
52.4273,52.4273,674.3989987804346,621.0277933093455,292.5155121759677
52.434,52.434,676.7318028843417,621.6528980387916,293.9986373657788
52.4408,52.4408,679.7998386790969,622.8578107748973,295.9127469147094
52.4475,52.4475,683.2042628050407,624.4573572579948,298.0388196913493
52.4543,52.4543,686.4927924336632,626.1979680123176,300.12094996648
52.461,52.461,689.2681788519035,627.8340375055149,301.9236360488871
52.4678,52.4678,691.2627508925208,629.1822839402322,303.2728665284706
52.4745,52.4745,692.3687578184331,630.1430905746918,304.0794629328236
52.4813,52.4813,692.6261584701922,630.6987140059168,304.342768844813
52.488,52.488,693.069460434298,630.8979398600321,304.5495718535532
52.4948,52.4948,694.0050803581479,630.9631348976013,305.10554252540896
52.5015,52.5015,695.2067322003885,631.1833351360171,305.87035951122493
52.5083,52.5083,696.4643213135715,631.4540404302763,306.70850322937304
52.515,52.515,697.6090538647586,631.6911631993141,307.50703429626
52.5218,52.5218,698.5281156337754,631.8391441917264,308.1866116782879
52.5285,52.5285,699.1677482378147,631.8727237084494,308.7054341327747
52.5353,52.5353,699.5261790782004,631.9516246750976,309.0566249513564
52.542,52.542,699.6401779682836,632.1203262063084,309.26097573878315
52.5488,52.5488,699.7111269605268,632.3434076115527,309.35738984891236
52.5555,52.5555,699.899988191248,632.580796720974,309.3928504530195
52.5623,52.5623,700.1445330498605,632.7948679792294,309.4132337337663
52.569,52.569,700.3956275635554,632.9558478621476,309.45605918729615
52.5758,52.5758,700.6210599249015,633.0449866695517,309.5460165410246
52.5825,52.5825,700.8054285553546,633.0551865380803,309.6935112580352
52.5893,52.5893,700.9474087591925,633.1210922769262,309.8957764943152
52.596,52.596,701.0558842229632,633.2536715567551,310.13978810624025
52.6028,52.6028,701.1460981356412,633.4408351620677,310.4061408820428
52.6095,52.6095,701.2366049332365,633.6713497183487,310.6730252260563
52.6163,52.6163,701.34715717253,633.937066904051,310.9197320678562
52.623,52.623,701.4969854886907,634.233565296374,311.12953455763795
52.6298,52.6298,701.7031307660395,634.5595722816748,311.2917887048881
52.6365,52.6365,701.9789958744592,634.9157753464491,311.40288982877263
52.6433,52.6433,702.3329855086932,635.3034649945586,311.466017655991
52.65,52.65,702.7668409852968,635.7233071137321,311.4900638505488
52.6568,52.6568,703.2739564616213,636.1744588768062,311.4920733274805
52.6635,52.6635,703.8386672870661,636.6541554103025,311.5049453794111
52.6703,52.6703,704.4373589255825,637.1578633232504,311.51338253028047
52.677,52.677,705.0414601604072,637.6798967643153,311.5230057792411
52.6838,52.6838,705.6214776029337,638.2138766064331,311.5613208071663
52.6905,52.6905,706.1504454251349,638.7519833512292,311.635392648925
52.6973,52.6973,706.6053036203906,639.281411462063,311.7496576816073
52.704,52.704,706.963624207002,639.7765119727594,311.90950443672585
52.7108,52.7108,707.1913472975368,640.1880705779771,312.1264673704459
52.7175,52.7175,707.2265086910288,640.4345590081016,312.4177486554184
52.7243,52.7243,707.4759859965556,640.4666393125422,312.79350650539715
52.731,52.731,708.1077377631083,640.9029390706486,313.2388191786121
52.7378,52.7378,709.1795637228902,641.8374767862201,313.70626681280254
52.7445,52.7445,710.6669468470582,643.2810884340793,314.12702688448013
52.7513,52.7513,712.4514489846533,645.1324199719428,314.4320808391613
52.758,52.758,714.3480519728944,647.1918411144484,314.56973138831955
52.7648,52.7648,716.1547586037343,649.2132403681392,314.6242694920869
52.7715,52.7715,717.7011363576611,650.9680644572493,314.8646831398359
52.7783,52.7783,718.8808946831451,652.2952922526273,315.25452191400956
52.785,52.785,719.6636568320479,653.1244203257023,315.7344932524515
52.7918,52.7918,720.0857841577935,653.4709230710787,316.23506422341126
52.7985,52.7985,720.2239786405169,653.529794862906,316.69067000962815
52.8053,52.8053,720.2852823426049,653.886550943749,317.05104969202057
52.812,52.812,720.4792751536731,654.4321612212915,317.28740845663543
52.8188,52.8188,720.7685634624686,655.0770727373751,317.3939103606281
52.8255,52.8255,721.1447512176283,655.762875594058,317.4022356738572
52.8323,52.8323,721.619984455378,656.4645112895334,317.49450034293574
52.839,52.839,722.2150331677611,657.1847913968303,317.63097281549454
52.8458,52.8458,722.9473460732505,657.944466032707,317.7707518410374
52.8525,52.8525,723.8211741492044,658.7710620161454,317.8783590443187
52.8593,52.8593,724.8220201055871,659.6885562118385,317.92792380018875
52.866,52.866,725.9169825797281,660.7090187956527,317.9505982880434
52.8728,52.8728,727.0595787381243,661.8268862234286,318.04699056861995
52.8795,52.8795,728.1958119798143,663.0159520794899,318.2055498481736
52.8863,52.8863,729.2696790979586,664.2285189562591,318.40220346863237
52.893,52.893,730.2264026656073,665.3953566499813,318.60061067696313
52.8998,52.8998,731.0086372114081,666.4253476189843,318.7518284177978
52.9065,52.9065,731.5462591353315,667.2058662691041,318.7996030926536
52.9133,52.9133,731.7550974484568,667.6093366187083,318.8999515300768
52.92,52.92,731.9503437607038,667.7023781870628,319.15636397533626
52.9268,52.9268,732.5771574591175,668.3610306024809,319.5290158257091
52.9335,52.9335,733.587663832339,669.561514238257,319.94258084349485
52.9403,52.9403,734.8612968010274,671.1712410714672,320.3120836245104
52.947,52.947,736.2325853830524,672.9700078771398,320.56840626351124
52.9538,52.9538,737.5272948154226,674.6994892795174,320.6749957465757
52.9605,52.9605,738.5951484913442,676.1223924776887,320.71717971134694
52.9673,52.9673,739.3350235127174,677.0716081535294,320.8751092695484
52.974,52.974,739.7101715088028,677.476671559238,321.09579440217084
52.9808,52.9808,739.7497011830567,677.5882836601521,321.3213323799066
52.9875,52.9875,739.9645054430036,678.1101400729635,321.50327311417374
52.9943,52.9943,740.324680514313,678.8878828666908,321.6122086067237
53.001,53.001,740.7207364976513,679.7536335579082,321.6400062595199
53.0078,53.0078,741.0645950311184,680.5565473774755,321.6843514591755
53.0145,53.0145,741.3015204592407,681.1843818520417,321.78187131576647
53.0213,53.0213,741.4115883044328,681.5736537892701,321.91060975294596
53.028,53.028,741.4194615120068,681.7091899207384,322.0508187589631
53.0348,53.0348,741.5170236882424,681.8021984579957,322.1880686508808
53.0415,53.0415,741.6667048838057,682.0700894930754,322.31445648903815
53.0483,53.0483,741.8301949660637,682.4438015127671,322.4281605009248
53.055,53.055,741.974559129633,682.8512710781234,322.53174870437124
53.0618,53.0618,742.0756347692935,683.2278324944547,322.6298038376085
53.0685,53.0685,742.1190966565645,683.5237175882432,322.7264526967826
53.0753,53.0753,742.138026081144,683.7084098780675,322.82342956287846
53.082,53.082,742.2152967627608,683.7720704660908,322.91920213446656
53.0888,53.0888,742.3390613176772,683.8199077739204,323.0092705097939
53.0955,53.0955,742.4914039680625,683.9541367746098,323.0872698092903
53.1023,53.1023,742.6509086629026,684.1397379700549,323.1462343200702
53.109,53.109,742.7957560710223,684.3382518942905,323.1795570040968
53.1158,53.1158,742.906812097479,684.51394872576,323.1816860778998
53.1225,53.1225,742.9702487190515,684.6388415470418,323.21458119672786
53.1293,53.1293,742.9794327117169,684.6960252789517,323.2839687595063
53.136,53.136,743.02308647507,684.7110372632546,323.3885101286034
53.1428,53.1428,743.1107212419063,684.7910835118665,323.52396982574936
53.1495,53.1495,743.2281745894487,684.9199079905328,323.68356936722387
53.1563,53.1563,743.3590024799082,685.0758043451277,323.8588105393905
53.163,53.163,743.487425699894,685.235590633032,324.040652731568
53.1698,53.1698,743.6005500155243,685.3782303766284,324.2207424942153
53.1765,53.1765,743.6897132510404,685.4875395782256,324.39237339157677
53.1833,53.1833,743.751067008439,685.5537010851024,324.55102205979153
53.19,53.19,743.7855127441132,685.573599415633,324.69444881268095
53.1968,53.1968,743.7979670270521,685.5970498724485,324.82245101558124
53.2035,53.2035,743.7999994715042,685.6563219475757,324.93632242383865
53.2103,53.2103,743.808597492043,685.7409681346833,325.0382733916987
53.217,53.217,743.8175606936755,685.8389298851647,325.13137478711656
53.2238,53.2238,743.8220060884028,685.9376195479323,325.2198795747351
53.2305,53.2305,743.8279441714193,686.0254489952815,325.30945298143115
53.2373,53.2373,743.8508574373889,686.0931664036196,325.40673524252816
53.244,53.244,743.8955625253404,686.1341390148789,325.5174262394507
53.2508,53.2508,743.9639306593192,686.1439229712806,325.6440262902975
53.2575,53.2575,744.0547969953179,686.1683598986928,325.7849115096909
53.2643,53.2643,744.1636578584482,686.2293423160064,325.9345554750779
53.271,53.271,744.2830852211798,686.3282804911865,326.0846805463285
53.2778,53.2778,744.4047329266754,686.4644420029374,326.22652002418596
53.2845,53.2845,744.5217662825266,686.6335424629048,326.35362316236717
53.2913,53.2913,744.6296566011965,686.8270810567805,326.4639567198213
53.298,53.298,744.7249257681523,687.0328195280574,326.5601471551018
53.3048,53.3048,744.8035346302547,687.2361517394834,326.6478013251094
53.3115,53.3115,744.8605384253126,687.421803728972,326.7330482057468
53.3183,53.3183,744.890947361133,687.5754538803398,326.8206828945211
53.325,53.325,744.8910946634238,687.6851283905479,326.91356190802964
53.3318,53.3318,744.9240375614127,687.7423621020414,327.0129848859835
53.3385,53.3385,744.9898964095748,687.7430810103675,327.1193739645117
53.3453,53.3453,745.0863639083184,687.7981528143367,327.23274875540653
53.352,53.352,745.2086882788971,687.9037495634376,327.3529482785315
53.3588,53.3588,745.3502774838189,688.0509116241999,327.4796947429278
53.3655,53.3655,745.5036429093992,688.2281659484692,327.61244750277507
53.3723,53.3723,745.6609819747894,688.4228524242103,327.75005934931806
53.379,53.379,745.8142418972338,688.622545191812,327.89045823687184
53.3858,53.3858,745.9553083757689,688.8163072682185,328.0306051590213
53.3925,53.3925,746.0768892907175,688.9951578972692,328.1668099043052
53.3993,53.3993,746.1735759066706,689.1515884434898,328.29519049942974
53.406,53.406,746.2422132443525,689.2789675947074,328.41209329388926
53.4128,53.4128,746.2819514958602,689.371747278423,328.51462448343796
53.4195,53.4195,746.2947053849357,689.4266705253494,328.6011555381222
53.4263,53.4263,746.3038255111392,689.4447459185429,328.6713545331368
53.433,53.433,746.3267567481794,689.4561869887962,328.7259046094917
53.4398,53.4398,746.35319704547,689.4825132891588,328.76646037451576
53.4465,53.4465,746.3712934131916,689.502694275118,328.7959311748131
53.4533,53.4533,746.3744849335309,689.513509296723,328.8188237805751
53.46,53.46,746.412737844258,689.5805532359266,328.8414167548852
53.4668,53.4668,746.5003256788024,689.7260314371158,328.87148771833427
53.4735,53.4735,746.6512060657288,689.9664823075005,328.91737629977735
53.4803,53.4803,746.8776577972317,690.3112669234722,328.98664725520075
53.487,53.487,747.1886928619066,690.762086990697,329.0848234580601
53.4938,53.4938,747.5885622558859,691.3134655713528,329.21432964863254
53.5005,53.5005,748.0756939684001,691.9543851796469,329.37371646069295
53.5073,53.5073,748.6423734329563,692.6709924528652,329.5574031727883
53.514,53.514,749.2752416419152,693.4494356253958,329.75591108745266
53.5208,53.5208,749.9559447943969,694.2748271601273,329.9549927868743
53.5275,53.5275,750.6561397945802,695.1194943244262,330.12931035345355
53.5343,53.5343,751.3178273097989,695.9211547871789,330.2321877950236
53.541,53.541,751.8299525556446,696.5661756802507,330.265139821441
53.5478,53.5478,752.0371429900855,696.8988663366999,330.4850939663915
53.5545,53.5545,752.2791192292292,697.0324190370965,330.89172527387734
53.5613,53.5613,753.0360256771622,697.7240019522919,331.42240161643696
53.568,53.568,754.2608866551311,698.959045505438,331.97644693275765
53.5748,53.5748,755.8058047402368,700.608964327574,332.4520300430712
53.5815,53.5815,757.464859818403,702.4599433228432,332.77479864260965
53.5883,53.5883,759.0258902014051,704.2639680210265,332.91307352067173
53.595,53.595,760.3147121460057,705.7927387891061,332.9461982660633
53.6018,53.6018,761.2235502217686,706.8796777550093,333.1029492651392
53.6085,53.6085,761.7205049988592,707.4438618459204,333.31895128829495
53.6153,53.6153,761.8413242331688,707.4952057665508,333.5315816829975
53.622,53.622,762.0140489958006,707.8681562609225,333.691647187553
53.6288,53.6288,762.3772314110436,708.524023553046,333.7674332987988
53.6355,53.6355,762.8311721571057,709.3009752808445,333.7899660060149
53.6423,53.6423,763.2946333314535,710.0476973829943,333.90840346883266
53.649,53.649,763.7099430222099,710.6466570592344,334.10679597410956
53.6558,53.6558,764.0415997201483,711.0262389654508,334.3602721992565
53.6625,53.6625,764.2726092586881,711.1619540695363,334.64022924279243
53.6693,53.6693,764.4008659186387,711.2540558014629,334.9191788066678
53.676,53.676,764.4360222711306,711.5280037793667,335.1746491693281
53.6828,53.6828,764.4753542574815,711.9198604973114,335.39132942608325
53.6895,53.6895,764.5643374566504,712.3595126696237,335.5611360139556
53.6963,53.6963,764.6751238098607,712.7813589069641,335.68198878975466
53.703,53.703,764.780806304424,713.1329635478739,335.75632692870363
53.7098,53.7098,764.8594510265348,713.3807469385507,335.78974754809195
53.7165,53.7165,764.897126368546,713.512115426627,335.7897713225416
53.7233,53.7233,764.9050204441974,713.5339861796432,335.8150425521344
53.73,53.73,764.954186023121,713.5996296425487,335.85752425409123
53.7368,53.7368,765.0332517338041,713.7218817669541,335.909947391061
53.7435,53.7435,765.1264992770523,713.8673113729376,335.9661845164614
53.7503,53.7503,765.2172609060596,714.0056224578182,336.02113397617524
53.757,53.757,765.2916766544421,714.1139721522959,336.0701370326611
53.7638,53.7638,765.3411094348733,714.1790996752876,336.10917329907574
53.7705,53.7705,765.3618903576154,714.1970164967476,336.13648050716984
53.7773,53.7773,765.369483333052,714.2227584825611,336.1535238822
53.784,53.784,765.4012070537684,714.2832520700605,336.1630665661964
53.7908,53.7908,765.4489097787415,714.366365364821,336.165815876611
53.7975,53.7975,765.5018720147043,714.4585876674889,336.17248718877255
53.8043,53.8043,765.5488649457586,714.5469840534748,336.193177161964
53.811,53.811,765.5795830623981,714.6212817315318,336.2326404914216
53.8178,53.8178,765.5853619950061,714.6750279799936,336.29456635602276
53.8245,53.8245,765.6105788907366,714.705206766695,336.3801002015047
53.8313,53.8313,765.6690490553074,714.7112382337897,336.4859213892811
53.838,53.838,765.758716276555,714.7279955259764,336.60332368130963
53.8448,53.8448,765.8738459220143,714.7642953159863,336.7193157624981
53.8515,53.8515,766.0063298873208,714.8152383548335,336.8191893871487
53.8583,53.8583,766.1469278434389,714.8748755212679,336.88946448172555
53.865,53.865,766.2863701175504,714.9369772485747,336.92039509787725
53.8718,53.8718,766.4165410152888,714.9957871028325,336.9332647833497
53.8785,53.8785,766.5315289682007,715.0466371459345,336.9886891318306
53.8853,53.8853,766.6281249958114,715.0863560358896,337.0803136935371
53.892,53.892,766.7057219068721,715.1134714150221,337.1979527410409
53.8988,53.8988,766.7658887292625,715.1281851738017,337.3292145572835
53.9055,53.9055,766.8118072788234,715.1320877488599,337.46120001851625
53.9123,53.9123,766.847551954978,715.1364778108613,337.5820780925507
53.919,53.919,766.8772117017046,715.1461779469,337.68238603426136
53.9258,53.9258,766.9040316723696,715.1581314282677,337.7559166311336
53.9325,53.9325,766.92982569917,715.1695743573282,337.80010267290646
53.9393,53.9393,766.9547858646775,715.1784140784191,337.8158936308789
53.946,53.946,766.9776383513309,715.1835541598133,337.8245807303574
53.9528,53.9528,766.9960821043188,715.1850735636272,337.8516872405267
53.9595,53.9595,767.0075058913184,715.1859672900289,337.89002915351716
53.9663,53.9663,767.0098801080643,715.1872434460016,337.93245758106445
53.973,53.973,767.017232995515,715.1879857345695,337.97295722614683
53.9798,53.9798,767.0333901870763,715.1931317337347,338.0074331160798
53.9865,53.9865,767.0563390086958,715.204853030374,338.03413253670584
53.9933,53.9933,767.0840194179298,715.2250434508311,338.0537709498211
54.0,54.0,767.1152728569044,715.2553060458148,338.0693747236939
54.0068,54.0068,767.1502229101241,715.2970507377757,338.0858393526894
54.0135,54.0135,767.1903832874885,715.3519197943982,338.1092804734925
54.0203,54.0203,767.2391007887364,715.4225106816624,338.14617115787223
54.027,54.027,767.3019083206119,715.5127757228956,338.2021240834971
54.0338,54.0338,767.3857517728306,715.6275548515542,338.2804429659239
54.0405,54.0405,767.497157242051,715.7713428994718,338.38096492597725
54.0473,54.0473,767.6402114696897,715.9464631228719,338.499667815489
54.054,54.054,767.814738248864,716.150558467858,338.6291085772626
54.0608,54.0608,768.0145648049908,716.373668967535,338.7593375442172
54.0675,54.0675,768.2261486627447,716.5959222089906,338.87897413614326
54.0743,54.0743,768.4279723212707,716.7871502369543,338.9763252876898
54.081,54.081,768.5903816490743,716.9097655683241,339.0402313866825
54.0878,54.0878,768.6770904182307,716.9256518615792,339.06074200473336
54.0945,54.0945,768.70346945576,717.0460675398057,339.09144596219716
54.1013,54.1013,768.8741780845841,717.3168358164916,339.1783614041756
54.108,54.108,769.2100407721607,717.7349360106216,339.32326462430694
54.1148,54.1148,769.7203667156351,718.2843914580693,339.523593818452
54.1215,54.1215,770.4028042063576,718.9434750923042,339.7709661591269
54.1283,54.1283,771.2433084402559,719.6912278398573,340.05099349753016
54.135,54.135,772.2162721455805,720.5106578587954,340.3449255140983
54.1418,54.1418,773.2852368829482,721.3884275887465,340.63224576382504
54.1485,54.1485,774.4048389747219,722.3124706024471,340.89320802905104
54.1553,54.1553,775.5243758257049,723.2689430025554,341.1107645122717
54.162,54.162,776.5920998250031,724.2374009498114,341.2709565529537
54.1688,54.1688,777.5562722410871,725.180761853268,341.3600047299826
54.1755,54.1755,778.3589865489879,726.031285769324,341.360126442962
54.1823,54.1823,778.9255869448975,726.6827985807142,341.47060805291216
54.189,54.189,779.1618227788739,727.003204006074,341.7053275120513
54.1958,54.1958,779.3487087265479,727.1341271197232,342.0554444757547
54.2025,54.2025,780.0076707220333,727.7777186615843,342.48025073792326
54.2093,54.2093,781.1099406861515,728.9064459596302,342.91407258560173
54.216,54.216,782.5447102344161,730.4036010787048,343.2849196907463
54.2228,54.2228,784.1408429896512,732.0874425999136,343.5325355910506
54.2295,54.2295,785.7040243090212,733.7475887147737,343.6205471583856
54.2363,54.2363,787.057490176458,735.183554656975,343.6987954419723
54.243,54.243,788.0737085137341,736.2389794659931,343.92153163493435
54.2498,54.2498,788.6902171615509,736.8260585217557,344.24606943642846
54.2565,54.2565,788.9103807807716,736.9358826719082,344.6195612559064
54.2633,54.2633,789.0273163736701,737.2383750767868,344.98976530635673
54.27,54.27,789.3826039728397,737.8330146172382,345.31330932795504
54.2768,54.2768,789.85764645622,738.5718633090637,345.5602080267933
54.2835,54.2835,790.3347587832534,739.3083925056234,345.71473194663395
54.2903,54.2903,790.7169260090604,739.9212938669071,345.77364009169963
54.297,54.297,790.9427003934189,740.3290493459884,345.8043046565379
54.3038,54.3038,790.9921779991113,740.4944754435712,345.9130531011881
54.3105,54.3105,791.0999432955181,740.5690483358915,346.08633394282134
54.3173,54.3173,791.3134569756252,740.8523957748754,346.3095625209302
54.324,54.324,791.5562861652259,741.2950918268099,346.5648606459051
54.3308,54.3308,791.7376724967579,741.8383005044291,346.8278005832319
54.3375,54.3375,791.7695063113893,742.4227668987304,347.06760492680087
54.3443,54.3443,791.9510957881643,742.997899336437,347.2530330893581
54.351,54.351,792.3671446143776,743.5279362914016,347.3610761227633
54.3578,54.3578,792.9891633010891,743.9936457501733,347.38288674894187
54.3645,54.3645,793.748692967719,744.3904252776272,347.44199678922223
54.3713,54.3713,794.5590837509659,744.7244478226709,347.56732233751154
54.378,54.378,795.3389828036019,745.0082351121638,347.740743386423
54.3848,54.3848,796.027780641236,745.256326313791,347.94476547070644
54.3915,54.3915,796.5898710651493,745.4812274408549,348.16374347917025
54.3983,54.3983,797.0109225526508,745.6900336131698,348.3835772630181
54.405,54.405,797.2914708536797,745.882410542823,348.59153351313716
54.4118,54.4118,797.4413436026039,746.0503387490161,348.7767923090574
54.4185,54.4185,797.4756246954187,746.1794393002345,348.9312724129186
54.4253,54.4253,797.5396704337419,746.2513484816317,349.0500171747096
54.432,54.432,797.6850544184465,746.2561965297265,349.1308007990107
54.4388,54.4388,797.8968065970217,746.3559683142901,349.1731725362555
54.4455,54.4455,798.1628466670295,746.5653179521645,349.1774799128692
54.4523,54.4523,798.4740179218462,746.8937808043117,349.21064641164423
54.459,54.459,798.8235998478925,747.3446527410698,349.28052891549265
54.4658,54.4658,799.2067422997193,747.9144193364979,349.3860333412546
54.4725,54.4725,799.620142787875,748.5928709515952,349.5255556940641
54.4793,54.4793,800.0620398893002,749.3640172500438,349.69687769021976
54.486,54.486,800.532312098501,750.2077131232898,349.8971015406651
54.4928,54.4928,801.0324177059452,751.1016931271349,350.12267849287343
54.4995,54.4995,801.5651007279158,752.0236935852694,350.3696926150881
54.5063,54.5063,802.1339004830218,752.9534591363664,350.63447753426345
54.513,54.513,802.7424350148168,753.8745077834681,350.9144067784925
54.5198,54.5198,803.3936197383955,754.7755310223475,351.20855394776146
54.5265,54.5265,804.0894643761504,755.6512284921224,351.518043868881
54.5333,54.5333,804.8314445195696,756.5022714194033,351.84602444858297
54.54,54.54,805.620224465688,757.3341311205471,352.19711183980576
54.5468,54.5468,806.4540598281126,758.1546688447559,352.57623550166454
54.5535,54.5535,807.3265228817637,758.9706667132166,352.9870490412341
54.5603,54.5603,808.2245305766188,759.7839756134691,353.4303205073378
54.567,54.567,809.1275740259155,760.5884303821259,353.90297569655763
54.5738,54.5738,810.0088554524916,761.3686922894401,354.3983519928352
54.5805,54.5805,810.838407802594,762.101450908374,354.9075014269411
54.5873,54.5873,811.5873245307879,762.7585668357254,355.42056978834455
54.594,54.594,812.2322330770968,763.311489048375,355.9274170193888
54.6008,54.6008,812.756332737243,763.7373259356043,356.4158323880837
54.6075,54.6075,813.1318580401556,764.0256022119567,356.85564508027403
54.6143,54.6143,813.2676706183285,764.1686165782393,357.15902571552044
54.621,54.621,813.5805724939771,764.2194388335156,357.16021067153326
54.6278,54.6278,814.6286283905583,764.5844730367894,357.65683947676234
54.6345,54.6345,816.6053389083021,765.3990239665856,358.75064304598214
54.6413,54.6413,819.4427695586724,766.7027988871108,360.38389793195245
54.648,54.648,822.7961602111362,768.390331567733,362.35092223774893
54.6548,54.6548,826.1744756967709,770.2585131304385,364.36288332944514
54.6615,54.6615,829.1072794399548,772.0926877426477,366.12788965904264
54.6683,54.6683,831.2633609187656,773.730324352298,367.4161103750315
54.675,54.675,832.4963122359633,775.0821876557935,368.09536766515765
54.6818,54.6818,832.8319460145937,776.1225750106624,368.14159877088247
54.6885,54.6885,833.2401143835896,776.8685681929677,368.65322518410056
54.6953,54.6953,834.1659642588629,777.3606185661124,369.57460707642434
54.702,54.702,835.3620209331878,777.6486640569245,370.72152621371964
54.7088,54.7088,836.5993059966928,777.7837006393898,371.91040308314524
54.7155,54.7155,837.6943698333982,777.8128129915109,372.98760362936787
54.7223,54.7223,838.5245882803927,777.8495310922732,373.84821405500327
54.729,54.729,839.0324136262236,777.9204703790524,374.4434117439431
54.7358,54.7358,839.2196112320453,778.0023546605552,374.7771270926268
54.7425,54.7425,839.305049536046,778.0790362818336,374.8944484382675
54.7493,54.7493,839.5862082507085,778.1397648708086,374.923615276864
54.756,54.756,839.9748804293731,778.1759603853947,375.0214641477519
54.7628,54.7628,840.3829398389519,778.1763564233931,375.115654992185
54.7695,54.7695,840.7248026663976,778.2351054065521,375.14833829423213
54.7763,54.7763,840.9180879000226,778.3864630942387,375.21368357840385
54.783,54.783,840.9459006075426,778.6730921452657,375.3876087694459
54.7898,54.7898,841.2441457409667,779.1347762307171,375.65406098263855
54.7965,54.7965,841.8238533209701,779.7935622532513,375.97465192511567
54.8033,54.8033,842.6491046371224,780.6407402792626,376.29831819139855
54.81,54.81,843.6411539215328,781.6304565112607,376.5745753759119
54.8168,54.8168,844.6944731138805,782.6828308287628,376.7655551146903
54.8235,54.8235,845.699140981,783.6962791075574,376.8533307225816
54.8303,54.8303,846.5626047911068,784.5656949426503,376.8648948596537
