Time,Time,Sum Acc X,Sum Acc Y,Sum Acc Z
133.333,133.333,0.00028178642348364715,0.0010831737058783837,4.6964301591634546e-05
133.34,133.34,0.0025466520581483676,0.009666534948719416,0.0004298538106974968
133.346,133.346,0.011589086379758255,0.04302319152464125,0.0019716244477245943
133.353,133.353,0.03597760380462123,0.12980993644896693,0.006139704521000267
133.36,133.36,0.08668692818303289,0.3034898643253302,0.014764807046804902
133.367,133.367,0.174095245974614,0.5928458594862698,0.029418244038633225
133.373,133.373,0.3047088337010494,1.0141864702500207,0.05068063372570415
133.38,133.38,0.47898276331289613,1.5674406677694863,0.07760085124191474
133.387,133.387,0.6909315225738306,2.236340990611032,0.10761623888206846
133.394,133.394,0.9294421242287014,2.991704857318859,0.13703765930569384
133.4,133.4,1.180535646025937,3.796539633319405,0.1618916561337378
133.407,133.407,1.4295874834196307,4.611783607587066,0.17873814418648826
133.414,133.414,1.663062554014553,5.401550425496168,0.18524243977590754
133.421,133.421,1.86997327870746,6.136958224020161,0.18998915499301056
133.427,133.427,2.043106456708628,6.798220280111879,0.20540759023695374
133.434,133.434,2.1795868383908816,7.375240585680042,0.22971071852718103
133.441,133.441,2.2805638224180287,7.8669986115028685,0.2605389944535119
133.448,133.448,2.35041121550292,8.27982559590854,0.29579529619782813
133.454,133.454,2.395962405953824,8.624786283596519,0.33446208500493474
133.461,133.461,2.4259282987799526,8.914708681857443,0.37719346187323616
133.468,133.468,2.450215668008551,9.161588717997486,0.4264583502261555
133.475,133.475,2.478806895970434,9.374912154509545,0.48609447663429733
133.481,133.481,2.5202573569399647,9.56101310349548,0.560338203624281
133.488,133.488,2.5803158297637045,9.723262885097485,0.6525537828368193
133.495,133.495,2.661204660484799,9.862753826812245,0.763932435445031
133.502,133.502,2.761689563356028,9.979170202846595,0.8924326036793021
133.508,133.508,2.877733904623908,10.07168430929865,1.032282903941205
133.515,133.515,3.0034752649461103,10.139801656705643,1.1744497787266184
133.522,133.522,3.1322500934260606,10.18398570195443,1.3082824345313013
133.529,133.529,3.25747282352686,10.205822302149627,1.423884148750315
133.535,133.535,3.373327288803519,10.20768115803707,1.5142000950925427
133.542,133.542,3.4752136090486494,10.223208682818113,1.5760628690800516
133.549,133.549,3.559874357979787,10.253755844546324,1.6101635872579956
133.556,133.556,3.6252713596711295,10.297435504180276,1.620334025795258
133.562,133.562,3.670404493230829,10.353041007474195,1.628194684733945
133.569,133.569,3.695211127316591,10.42022892263534,1.6473592421896295
133.576,133.576,3.700459970594133,10.499484285978495,1.67144077215507
133.583,133.583,3.713516816303748,10.59167497886521,1.695223141492028
133.589,133.589,3.743789258086841,10.697340302343164,1.7151107760531676
133.596,133.596,3.7909174912587096,10.816205420988402,1.7293320876493206
133.603,133.603,3.8549552365316067,10.947334815677435,1.7379503801465184
133.61,133.61,3.934926994900279,11.089663087496138,1.7426543627119528
133.616,133.616,4.027751174276734,11.24224422219891,1.7463443010332576
133.623,133.623,4.129482537899123,11.404160936052353,1.7526348958604954
133.63,133.63,4.2371403733045545,11.574744330802512,1.7653244219243356
133.637,133.637,4.346870204843568,11.754131897083301,1.7876807094185767
133.643,133.643,4.451320349326827,11.942816953788007,1.821828838923038
133.65,133.65,4.542218370997059,12.140395161508966,1.8689918763871234
133.657,133.657,4.61379371544101,12.34612247103112,1.9303633240580995
133.664,133.664,4.661110062124898,12.561717674696604,2.0071860383220193
133.67,133.67,4.6771727387689355,12.794148363692294,2.0995200975023427
133.677,133.677,4.700879818250692,13.056614242942905,2.2050549138391005
133.684,133.684,4.772103383038622,13.367152233701663,2.3191429123197373
133.691,133.691,4.896630589586381,13.74557289524629,2.4357143555120704
133.697,133.697,5.077854698023856,14.21016317168906,2.5483498083626794
133.704,133.704,5.315913658758422,14.774984608918139,2.651154338346503
133.711,133.711,5.60678073567004,15.447839905940222,2.739226346409994
133.718,133.718,5.941962225038715,16.22896956277919,2.8087931895092266
133.724,133.724,6.308916377284848,17.110719522721386,2.857354589562688
133.731,133.731,6.692123733896069,18.07817977815376,2.8839488855320394
133.738,133.738,7.074182925279714,19.110097445922232,2.889142211343939
133.745,133.745,7.434286820488135,20.178077304850742,2.904493199035941
133.751,133.751,7.7404610842562,21.241934758639072,2.9423240357196505
133.758,133.758,7.939179710745501,22.242008256746626,3.010180509487397
133.765,133.765,7.956970579953155,23.09372197324789,3.1187882207838755
133.772,133.772,8.188837930856371,23.69445109296618,3.2722899307537427
133.778,133.778,8.697836102686065,23.95010839803474,3.4573441682665824
133.785,133.785,9.449871700191137,24.0888130253029,3.641077790673039
133.792,133.792,10.360415211233105,24.60334303309634,3.7809596325586425
133.799,133.799,11.325207839072064,25.409558736667066,3.8393166220875607
133.805,133.805,12.249243265068518,26.378280179724435,3.8853775736168044
133.812,133.812,13.06277072174597,27.36102607061893,4.041288515169174
133.819,133.819,13.724843168167572,28.213853371324507,4.297006147307383
133.826,133.826,14.219992837204813,28.818686134835275,4.631102851617098
133.832,133.832,14.553068532430473,29.101190923821157,5.015673701433923
133.839,133.839,14.74431237857657,29.161024019895997,5.4211316832765055
133.846,133.846,14.824542682295382,29.529017198593746,5.82002015304035
133.853,133.853,14.830040223795425,30.12784389045154,6.189314566054215
133.859,133.859,14.862483010847011,30.855979430164464,6.511351867248515
133.866,133.866,14.899252386834753,31.60963145796454,6.77389755245346
133.873,133.873,14.91182392471092,32.30211545455185,6.969708434927805
133.88,133.88,14.945782525881132,32.87605999701288,7.09576949378664
133.886,133.886,15.040449403722297,33.306479024557916,7.152409385569321
133.893,133.893,15.198789088794237,33.59600217043028,7.162454519336092
133.9,133.9,15.410248517322312,33.76549609608333,7.235214719913561
133.907,133.907,15.65086998726482,33.84417287833837,7.366511076129689
133.913,133.913,15.885848393169889,33.86302828331074,7.551620516545826
133.92,133.92,16.074981462244835,33.873523117610375,7.783308526329258
133.927,133.927,16.18234469968279,33.88380371570351,8.049835290599344
133.934,133.934,16.188991219415175,33.90164041152935,8.334773340569948
133.94,133.94,16.274277571119633,33.97259533259957,8.619047243327973
133.947,133.947,16.411655668097577,34.11827843494849,8.884113345268208
133.954,133.954,16.536590216376904,34.35766251068621,9.114632803066113
133.961,133.961,16.573798372996166,34.70794165842767,9.299592161116383
133.967,133.967,16.693705519866683,35.18411181288372,9.431843702715721
133.974,133.974,17.01999596419035,35.79674706084939,9.506758108397072
133.981,133.981,17.5735038640235,36.54796852371031,9.521224757819112
133.988,133.988,18.343221922957458,37.426465312772905,9.566922342475399
133.994,133.994,19.273018569326364,38.404026650245825,9.66539329805509
134.001,134.001,20.23040956739299,39.4320185909328,9.803723334874602
134.008,134.008,21.0057384192136,40.43117300746691,9.967583260582797
134.015,134.015,21.39102450476575,41.28536427799836,10.139552375518765
134.021,134.021,21.49872812226492,41.866007757558826,10.299472573343106
134.028,134.028,22.061855883222595,42.08301966861622,10.432123875161599
134.035,134.035,22.941396146086714,42.24304921810098,10.532109682718668
134.042,134.042,23.956974732834556,42.716275150396214,10.602418429567729
134.048,134.048,24.93335338823755,43.38976570394934,10.651468071298924
134.055,134.055,25.73002420329935,44.1383335651484,10.68979645603306
134.062,134.062,26.257396128673253,44.855504325348114,10.726197848327862
134.069,134.069,26.480672539523898,45.47092545128411,10.765180621357892
134.075,134.075,26.54722240242673,45.95352345315098,10.806768193458451
134.082,134.082,26.85145406616981,46.30464329263742,10.847655504109083
134.089,134.089,27.317154217912467,46.545369231019,10.883009400585882
134.096,134.096,27.858573599773965,46.701667691223804,10.908902940686707
134.102,134.102,28.393281171191195,46.79166834715235,10.924642447564274
134.109,134.109,28.85084792389988,46.81861571350877,10.933772771163055
134.116,134.116,29.17698872848174,46.86655395619948,10.943347397184498
134.123,134.123,29.33563163804389,47.01067232806838,10.961884095986306
134.129,134.129,29.360732981209384,47.273081192439896,10.996776272735898
134.136,134.136,29.566058308776775,47.66860694879948,11.051972639434256
134.143,134.143,29.930824449158052,48.19993675057718,11.126379930933478
134.15,134.15,30.42113024933493,48.856624581289196,11.213130173715262
134.156,134.156,30.994974343883435,49.616827869892006,11.299835189255274
134.163,134.163,31.607313544030937,50.45029954855035,11.369959588936133
134.17,134.17,32.214305058733835,51.32169910620692,11.4052130402985
134.177,134.177,32.77663214629716,52.193598318150094,11.422009307142895
134.183,134.183,33.26203184432953,53.02857323812654,11.504254848966694
134.19,134.19,33.64560704507619,53.789587158197264,11.659628855414862
134.197,134.197,33.9052794850989,54.437464150612016,11.889287427054825
134.204,134.204,34.01483741029662,54.92527307821442,12.187652044686015
134.21,134.21,34.084667258618886,55.19374078544595,12.541088427097781
134.217,134.217,34.35142454291282,55.210780814856406,12.925344950562057
134.224,134.224,34.8032994474485,55.56521574484077,13.305064833651336
134.231,134.231,35.39509126949463,56.26627274381433,13.639025054661113
134.237,134.237,36.060597646496106,57.263334254008036,13.890448492748948
134.244,134.244,36.73088449993729,58.45086052463959,14.037299502775141
134.251,134.251,37.34809290870814,59.691417942231894,14.07741776111923
134.258,134.258,37.871753664955804,60.8455787175422,14.127890399961196
134.264,134.264,38.27976951304946,61.7988164392885,14.240768909475994
134.271,134.271,38.56685259182402,62.47954704329089,14.383525523151796
134.278,134.278,38.7415719587385,62.86606184257013,14.525901183767804
134.285,134.285,38.822397852313905,62.98288751264309,14.644138561031697
134.291,134.291,38.83348910059727,63.07650964736506,14.72273882907038
134.298,134.298,38.86605727689765,63.30216405939481,14.754476446450367
134.305,134.305,38.91727645370381,63.57805462462719,14.769347576604673
134.312,134.312,38.96468937519559,63.832336269493666,14.824333526911891
134.318,134.318,38.98950390074646,64.01254792878152,14.90878202979849
134.325,134.325,38.99929773456047,64.08947651123951,15.01063787805323
134.332,134.332,39.047640439695996,64.12483254667784,15.118762114122886
134.339,134.339,39.134013348844654,64.26789325553378,15.224176584930937
134.345,134.345,39.255288480591844,64.50540169480554,15.320508560964493
134.352,134.352,39.40413091085737,64.81832799189623,15.404133768032578
134.359,134.359,39.57059176014744,65.18534727872355,15.47391924368703
134.366,134.366,39.746694572024,65.58722943878574,15.530268859262744
134.372,134.372,39.92849862147248,66.01047833479274,15.573974521948527
134.379,134.379,40.114495019303206,66.44836372194477,15.605459785759567
134.386,134.386,40.3029885275037,66.89878218101722,15.624338574951235
134.393,134.393,40.49066407775137,67.36028535843388,15.629152642737527
134.399,134.399,40.672613458306756,67.82860508286214,15.64082660046489
134.406,134.406,40.84301055315676,68.29533321869953,15.671721353663175
134.413,134.413,40.99575484069713,68.74880756480498,15.72382209293752
134.42,134.42,41.124845260864596,69.17617792789729,15.797302423102884
134.426,134.426,41.22440339701924,69.5654678321398,15.889824230639054
134.433,134.433,41.28822312925857,69.9068960030212,15.996413084175812
134.44,134.44,41.30910058046276,70.19353523104186,16.110013161011462
134.447,134.447,41.339383114478814,70.42190532391598,16.222608523324475
134.453,134.453,41.42933283991508,70.59283563357194,16.326462570593307
134.46,134.46,41.58730326537373,70.7123539770442,16.414975782084245
134.467,134.467,41.82104399123458,70.79200136901518,16.482924919088635
134.474,134.474,42.13574088361579,70.84788978384802,16.526209979199823
134.48,134.48,42.53062908153732,70.89815580270366,16.541595112301792
134.487,134.487,42.99593828460134,70.95924327354453,16.5562211062772
134.494,134.494,43.51207518989943,71.04213452044483,16.60099266463233
134.501,134.501,44.05244749323976,71.1497941763263,16.673076106962817
134.507,134.507,44.59043965718975,71.27676922637401,16.766077381129627
134.514,134.514,45.10894188572317,71.41132450248222,16.870150359177376
134.521,134.521,45.60720104383977,71.53957456939068,16.973012696557316
134.528,134.528,46.09917888527341,71.64985815923313,17.06195012513817
134.534,134.534,46.603663435947155,71.73530966025497,17.126254744371547
134.541,134.541,47.13277016914605,71.79395474290241,17.159028807254057
134.548,134.548,47.68520107483827,71.82718423825843,17.160284230664836
134.555,134.555,48.245999219280094,71.83776999191502,17.194084697118043
134.561,134.561,48.79099565012018,71.84735113770064,17.25597293155005
134.568,134.568,49.29322940414943,71.87590501371088,17.339785099072312
134.575,134.575,49.729046284924266,71.9237478493964,17.438863262171484
134.582,134.582,50.08234153148546,71.99241001361676,17.547026166847164
134.588,134.588,50.346363812069725,72.0842383526943,17.659248191778676
134.595,134.595,50.523372018619554,72.20213004505206,17.77201951026227
134.602,134.602,50.62278666441508,72.34929216377655,17.88336853619041
134.609,134.609,50.658475872085134,72.52888077829304,17.99261794881428
134.615,134.615,50.67112296448598,72.74351160376482,18.100017965627295
134.622,134.622,50.7177222613316,72.99474558001302,18.20636279693206
134.629,134.629,50.786577396403516,73.28270915642761,18.312629053843402
134.636,134.636,50.86933942520502,73.60593490779553,18.419678519700227
134.642,134.642,50.960742718254565,73.96141989331926,18.52799900155092
134.649,134.649,51.057673741700995,74.34491808090301,18.637327873275428
134.656,134.656,51.15796268636769,74.75156148648122,18.746262964263444
134.663,134.663,51.259544626146976,75.17695513112012,18.85229551412007
134.669,134.669,51.36060208013095,75.61859287998905,18.952361050225576
134.676,134.676,51.460598635932996,76.07671581366255,19.04355651503194
134.683,134.683,51.561292054381006,76.55361407742708,19.123791923902292
134.69,134.69,51.6667184982097,77.05151773215285,19.192345940910187
134.696,134.696,51.78200946037667,77.57029039834569,19.250154290010716
134.703,134.703,51.911808214381765,78.10599535183403,19.29958842210728
134.71,134.71,52.05896689181452,78.6507104257429,19.343790513358293
134.717,134.717,52.223734291892896,79.19340597588766,19.3858884041203
134.723,134.723,52.40352071315838,79.72134423470314,19.42837652052357
134.73,134.73,52.593206798813405,80.22145246718023,19.47284964005104
134.737,134.737,52.785741702316386,80.68137611605302,19.5201333151991
134.744,134.744,52.97277604074095,81.09013887592374,19.570670363124126
134.75,134.75,53.145375391731626,81.43846251003205,19.624936086320275
134.757,134.757,53.295080655847535,81.71885689822473,19.68366455573318
134.764,134.764,53.41537144809442,81.92558896818741,19.747749845684385
134.771,134.771,53.503176971632385,82.05463446247428,19.81784468845853
134.777,134.777,53.559855762969256,82.10370921592987,19.89384241995088
134.784,134.784,53.591242201756714,82.13502463065836,19.974473306779046
134.791,134.791,53.606799208394854,82.24513576185707,20.05714637664652
134.798,134.798,53.61812945389474,82.43027590496209,20.138053565467583
134.804,134.804,53.63705467089833,82.68429721565775,20.21249927855083
134.811,134.811,53.67358402329276,82.99847859374276,20.275374728715356
134.818,134.818,53.734265605164644,83.36158035716723,20.321650499163386
134.825,134.825,53.82131280550715,83.76043940169522,20.346772832713864
134.831,134.831,53.93260943093598,84.18129773171067,20.346945098983614
134.838,134.838,54.062515851774904,84.6117277610324,20.374522634820103
134.845,134.845,54.20333404515579,85.04257079130257,20.43137907070414
134.852,134.852,54.34712614137055,85.46914910987304,20.517455129517245
134.858,134.858,54.487419577278764,85.891352612887,20.630828398073866
134.865,134.865,54.62040795421006,86.3126716561605,20.767643007758615
134.872,134.872,54.74543406747658,86.73855267126078,20.922371915194088
134.879,134.879,54.8647153271139,87.17460782969596,21.088420466926724
134.885,134.885,54.98248141348953,87.62515805533387,21.258971406213096
134.892,134.892,55.10383490283963,88.0923951932099,21.427918836313335
134.899,134.899,55.23362075734514,88.57626149943901,21.590735759200665
134.906,134.906,55.375492906409,89.0749500028281,21.745127502941244
134.912,134.912,55.53134305304452,89.58577668546639,21.89134440116903
134.919,134.919,55.70118013691384,90.10613752781045,22.032075782059632
134.926,134.926,55.88331496310002,90.63428669549876,22.171890917271995
134.933,134.933,56.074629898815274,91.16975671526022,22.316288609515976
134.939,134.939,56.27092213460829,91.71338743707823,22.470583489897596
134.946,134.946,56.467440291792386,92.26703377549343,22.638911953704895
134.953,134.953,56.65961565560417,92.833072216514,22.8235320300602
134.96,134.96,56.84383751120101,93.41385716500731,23.02447206024873
134.966,134.966,57.018107254380716,94.01127331054678,23.23951689605409
134.973,134.973,57.18242094197063,94.6264722015107,23.464505838953922
134.98,134.98,57.338691538314485,95.25978665787547,23.693917082026683
134.987,134.987,57.49014345856906,95.91081071570773,23.921639940735844
134.993,134.993,57.6404204762629,96.57869750199293,24.141755600116745
135.0,135.0,57.79279114136295,97.26277122882271,24.34917753060402
135.007,135.007,57.95043849947568,97.96437409969661,24.54592646927938
135.014,135.014,58.10199946843408,98.6994904997326,24.75333207017701
135.02,135.02,58.174044226124934,99.53169124860946,25.00513318707075
135.027,135.027,58.33152301148938,100.59066311551734,25.316417643316704
135.034,135.034,58.84424851836429,102.01791711199749,25.66447651265825
135.041,135.041,59.68341566641118,103.86224500744962,25.993961877715183
135.047,135.047,60.65518154935331,106.02298074644342,26.233673694047365
135.054,135.054,61.50682752578067,108.28493576878743,26.32150199548753
135.061,135.061,62.043503943755745,110.39713712438451,26.415004591461365
135.068,135.068,62.186159003119904,112.13991609640482,26.678127445543698
135.074,135.074,62.4036766920549,113.36626923049661,27.06588558049625
135.081,135.081,62.8702647383525,114.02021633785671,27.515908033227937
135.088,135.088,63.44264405991041,114.13307178898485,27.963147661262177
135.095,135.095,63.985662218397444,114.4632505495139,28.349293765775784
135.101,135.101,64.39831302792928,115.09963888748322,28.628114274915887
135.108,135.108,64.62354482132181,115.89494676297234,28.76959991379722
135.115,135.115,64.6465842007559,116.71534181680853,28.775955940409276
135.122,135.122,64.80606064410377,117.45636814435053,28.921321592450955
135.128,135.128,65.10494193286465,118.05016728400707,29.181779524923368
135.135,135.135,65.48899834632498,118.46601782753564,29.523348143472802
135.142,135.142,65.90404278067919,118.70636706568519,29.9056471984773
135.149,135.149,66.30411639204519,118.80004896187914,30.28597638998397
135.155,135.155,66.65719567712482,118.80586806019744,30.62526819964126
135.162,135.162,66.94900845589827,118.8543754964728,30.894439270969954
135.169,135.169,67.18331790091524,118.8882841465322,31.078575290240998
135.176,135.176,67.3780620311195,118.91841606030306,31.177364264554978
135.182,135.182,67.55966414407935,119.04875474368116,31.202020676580865
135.189,135.189,67.75723051611418,119.30043667717449,31.233623168636175
135.196,135.196,67.99698055510535,119.68084495060563,31.301792986459724
135.203,135.203,68.29788030479905,120.18677382923352,31.388820791120427
135.209,135.209,68.66944001569009,120.80822112770507,31.48138591262701
135.216,135.216,69.1115178201299,121.53174865778591,31.571571898870012
135.223,135.223,69.6155289621745,122.34282878395483,31.656567322018784
135.23,135.23,70.16657055521864,123.22690177941953,31.736955738080955
135.236,135.236,70.74575446331993,124.16912118623596,31.813695415344874
135.243,135.243,71.33199923148909,125.15309429836579,31.884707709089685
135.25,135.25,71.90199628709162,126.15854033029464,31.942399964373823
135.257,135.257,72.42563133702167,127.15657667406343,31.97290379344185
135.263,135.263,72.85792650865959,128.10179265168858,31.987734267735846
135.27,135.27,73.13906772356427,128.92441028477683,32.06360266427742
135.277,135.277,73.21394233986209,129.53202626336022,32.203084327175375
135.284,135.284,73.36582593769931,129.83033441811287,32.3874594081655
135.29,135.29,73.7145897079433,129.90261803978498,32.578202015493886
135.297,135.297,74.19072851231758,130.3442330905825,32.72835935877145
135.304,135.304,74.71190258964744,131.08390274780473,32.797255875080644
135.311,135.311,75.20700256376344,131.99694510792077,32.833086524810085
135.317,135.317,75.62730223909365,132.93607851023057,32.975791871188264
135.324,135.324,75.94714361408887,133.76331837704808,33.207979690736785
135.331,135.331,76.1608855177424,134.3742270231166,33.4980461848085
135.338,135.338,76.27909884706713,134.71118302944808,33.80721075275051
135.344,135.344,76.32415374154364,134.76577881358185,34.09695031046565
135.351,135.351,76.32570594463779,134.95911801843832,34.33568861392026
135.358,135.358,76.33621173573191,135.335858514062,34.503833211952404
135.365,135.365,76.33928350588732,135.81765097600834,34.59630194153181
135.371,135.371,76.36918953176917,136.32871488959742,34.62178985699447
135.378,135.378,76.4243307652703,136.8095768895766,34.64461974432907
135.385,135.385,76.48866951492468,137.22636802197763,34.69273331389441
135.392,135.392,76.53430114052014,137.57412518025086,34.74442035558039
135.398,135.398,76.54167164381423,137.87397272228526,34.78358971013354
135.405,135.405,76.63545434757421,138.1659466407588,34.80195023754391
135.412,135.412,76.84151331366412,138.49966232050443,34.804590584417674
135.419,135.419,77.17365618094591,138.9247674378892,34.82135987481906
135.425,135.425,77.63148480187131,139.48275859215954,34.840299026278046
135.432,135.432,78.2002881366498,140.20087181034017,34.84698759780221
135.439,135.439,78.85279016420078,141.08808007594388,34.86649686503438
135.446,135.446,79.55206862497892,142.13271727193361,34.92333565135223
135.452,135.452,80.25211173832706,143.29975955067502,35.02593448559136
135.459,135.459,80.89135611658327,144.5250963541473,35.18238357774192
135.466,135.466,81.38590151445047,145.7074690501801,35.39897886149046
135.473,135.473,81.642568962152,146.70704460280882,35.6694929195763
135.479,135.479,81.68922189699823,147.36525486846514,35.96169250201303
135.486,135.486,82.04436116317247,147.54829908540904,36.21528782913099
135.493,135.493,82.65136795057708,147.90213262479193,36.35695548010953
135.5,135.5,83.4162038179874,148.75474034016938,36.38950859122448
135.506,135.506,84.23647564507954,149.96979478130763,36.62769019259613
135.513,135.513,85.02148802857624,151.34239482460615,37.065106919097595
135.52,135.52,85.70151407269968,152.64729465002648,37.66357685196812
135.527,135.527,86.23078433157629,153.68910833093668,38.36619093072046
135.533,135.533,86.5882346543107,154.3390884195438,39.11112360864017
135.54,135.54,86.77660043678378,154.5515810505219,39.84201844247769
135.547,135.547,86.81875739458368,154.74202609138757,40.51334702904402
135.554,135.554,86.88575046945056,155.23805623790554,41.09168782476146
135.56,135.56,87.01707719594897,155.90564582427527,41.55502645202753
135.567,135.567,87.16696076721603,156.6038005621273,41.89128179302828
135.574,135.574,87.29679838304122,157.2127464771274,42.0962000771512
135.581,135.581,87.38288978008688,157.65411220933606,42.171134886061196
135.587,135.587,87.4204433177372,157.89784406071553,42.220474267361936
135.594,135.594,87.42359390015146,157.9563935824447,42.38394977138002
135.601,135.601,87.4236804663202,158.0411986720738,42.64637662442571
135.608,135.608,87.46436421258207,158.21293791528117,42.98731388638899
135.614,135.614,87.59314580387414,158.41347865964434,43.38163382757208
135.621,135.621,87.84511446168537,158.59241428640806,43.800909526703464
135.628,135.628,88.22648912920144,158.7124885123257,44.215725984146715
135.635,135.635,88.7050505564245,158.7506430290598,44.598763044357085
135.641,135.641,89.21290896575098,158.80630347726475,44.927903897440366
135.648,135.648,89.6602327202135,158.96225861811106,45.188306531321075
135.655,135.655,89.95342600707973,159.22594232288347,45.37257194492981
135.662,135.662,90.01079425713154,159.6105031976394,45.47894399623781
135.668,135.668,90.24913804012625,160.13629073412326,45.50853376658006
135.675,135.675,90.81598893871447,160.82849903857286,45.55413008831446
135.682,135.682,91.71394994908313,161.71128307818745,45.673966678879864
135.689,135.689,92.91401194203054,162.79925300283378,45.867489325418276
135.695,135.695,94.35731775199889,164.08821549223123,46.13310888901144
135.702,135.702,95.95887781397644,165.54782535178288,46.46087312047506
135.709,135.709,97.59399530459308,167.1135821253286,46.81824830058709
135.716,135.716,99.05476736823074,168.66582688748755,47.15077805386706
135.722,135.722,100.04656397553164,170.00260330394403,47.407432988149836
135.729,135.729,100.30534177667407,170.85753488880806,47.56370719897837
135.736,135.736,100.85518856920743,170.99257323679845,47.628289822484064
135.743,135.743,102.0568942951078,171.67679093019476,47.64004990108537
135.749,135.749,103.608552340826,173.09330378197802,47.65513133913301
135.756,135.756,105.18612365299063,175.00152343642287,47.72726637602241
135.763,135.763,106.53092857807312,177.08512979778513,47.890715800848255
135.77,135.77,107.48784194088647,179.03446538886237,48.151687078955476
135.776,135.776,108.00586051678576,180.60834391149004,48.48967870785196
135.783,135.783,108.11673973989687,181.6659053820269,48.86557303933156
135.79,135.79,108.32821187195961,182.1708621539202,49.23137698277389
135.797,135.797,108.75279586025103,182.17634575059083,49.53929095913705
135.803,135.803,109.27883150266861,182.554799600225,49.75047666120348
135.81,135.81,109.80692535008683,183.17153078992254,49.842845159079786
135.817,135.817,110.25985482303416,183.88108600160064,49.87111126584376
135.824,135.824,110.58908334801315,184.5610686404189,50.004716798299555
135.83,135.83,110.77639693796992,185.1255066114428,50.21904548477379
135.837,135.837,110.82975630476486,185.52927890792876,50.48803418248942
135.844,135.844,110.88412459031775,185.76516840522012,50.789091996475726
135.851,135.851,111.01050363404254,185.8556346889942,51.10463301775287
135.857,135.857,111.17153079954875,185.8695003057346,51.421370348735415
135.864,135.864,111.33418156841775,185.93940700806726,51.72882726723115
135.871,135.871,111.47357320141778,186.01965604838506,52.01803702600075
135.878,135.878,111.57478737703129,186.07403430815006,52.28085065833211
135.884,135.884,111.63291622512234,186.07947603750284,52.50999786292936
135.891,135.891,111.65144243092303,186.13215886539257,52.69980515000707
135.898,135.898,111.66343039270967,186.23988815373002,52.84716159872389
135.905,135.905,111.69429171900559,186.3905440320431,52.95222079500585
135.911,135.911,111.73245449903932,186.5669759635261,53.01845545408844
135.918,135.918,111.76834058258582,186.75095308748982,53.05190545776311
135.925,135.925,111.79556328843366,186.92633817514815,53.059804250153306
135.932,135.932,111.81145096996703,187.08105878928708,53.070552201390676
135.938,135.938,111.8169502896879,187.20782643641385,53.09459709275281
135.945,135.945,111.81798490419938,187.30387105431754,53.12883338487786
135.952,135.952,111.82000686604867,187.3700749766247,53.172414809102655
135.959,135.959,111.82286119788193,187.4098626906545,53.22603066766453
135.965,135.965,111.8356409450213,187.42814195947545,53.290668465436184
135.972,135.972,111.86187849521906,187.43044727624803,53.36642375377974
135.979,135.979,111.90325362479089,187.43863289379237,53.45187251111089
135.986,135.986,111.95953340270408,187.45239910332563,53.54409773949014
135.992,135.992,112.028818554352,187.46770910098786,53.63911320813245
135.999,135.999,112.10807955927976,187.48147565135818,53.73240609203209
136.006,136.006,112.19372959317131,187.49149542946142,53.81946159244063
136.013,136.013,112.28192479294215,187.49629399279513,53.89621964312722
136.019,136.019,112.36860876777352,187.4976469474555,53.9594564100747
136.026,136.026,112.44964786790676,187.50559180452436,54.00710841753797
136.033,136.033,112.52127539995871,187.51992343355056,54.038455189180354
136.04,136.04,112.58066215658485,187.53963295836792,54.05395566653223
136.046,136.046,112.62624764715225,187.56305241304727,54.05466664822206
136.053,136.053,112.65768117447595,187.5883561516974,54.06781116511786
136.06,136.06,112.6755915483751,187.61413448667952,54.09437000304975
136.067,136.067,112.6814823125534,187.63965855271982,54.134124548482255
136.073,136.073,112.68525091744392,187.66468722898074,54.186285516195056
136.08,136.08,112.6957334405806,187.6890063888638,54.24858308183562
136.087,136.087,112.70997166182576,187.71201857434502,54.316840120394765
136.094,136.094,112.72536495069113,187.73254899695618,54.38558349967113
136.1,136.1,112.73954239441511,187.74889712722327,54.44962717526565
136.107,136.107,112.75015242540965,187.75917133098272,54.505768752105524
136.114,136.114,112.7550359395231,187.7618683472657,54.55362336563735
136.121,136.121,112.7573651107889,187.76727227566272,54.59521272908218
136.127,136.127,112.76726035192681,187.7800262468256,54.63362810941007
136.134,136.134,112.78364655121217,187.79827110921636,54.67149172270722
136.141,136.141,112.8039667661622,187.81960249710184,54.709889963062096
136.148,136.148,112.82455346427045,187.84177477261787,54.74802336407363
136.154,136.154,112.8414095095122,187.86326211872012,54.783417085209244
136.161,136.161,112.85108156748502,187.8835580368098,54.812476905232955
136.168,136.168,112.85129508185295,187.90320907207183,54.831314366170155
136.175,136.175,112.8614192253203,187.92355029955658,54.83676609460526
136.181,136.181,112.8814854276734,187.94618721484358,54.84616301417726
136.188,136.188,112.90999119633092,187.9724385961207,54.86958292201059
136.195,136.195,112.9444446929161,188.00296116752637,54.9039498448403
136.202,136.202,112.98164260247674,188.03762718270545,54.94454889862812
136.208,136.208,113.01823074278455,188.07559222294103,54.985940395634536
136.215,136.215,113.05133929373305,188.11546965271967,55.022931882528056
136.222,136.222,113.0789573925976,188.15559067685402,55.05142944707286
136.229,136.229,113.09991083134027,188.19436576992146,55.068994599703764
136.235,136.235,113.11360918843464,188.23069841214271,55.07500023432211
136.242,136.242,113.11986442014623,188.26427672224153,55.07957271654427
136.249,136.249,113.12078526019027,188.2955846439449,55.09252857877647
136.256,136.256,113.12800371585844,188.32567955798243,55.110883679685394
136.262,136.262,113.13999750481734,188.35590127672805,55.1312535987223
136.269,136.269,113.15474070065348,188.38762411523467,55.1502156264922
136.276,136.276,113.16996291239509,188.4221105808558,55.16463282268987
136.283,136.283,113.18348921707944,188.46047200100514,55.17189899696236
136.289,136.289,113.19356933830876,188.50366767983516,55.17366877764244
136.296,136.296,113.19910127872032,188.5524688335095,55.185428620854914
136.303,136.303,113.19973503165623,188.6073741366708,55.206998369909684
136.31,136.31,113.20362431471897,188.66851007047094,55.23698828924411
136.316,136.316,113.21111342385389,188.73555268867355,55.27292976125044
136.323,136.323,113.22097571572651,188.80772290450057,55.311594237274036
136.33,136.33,113.23185577777586,188.88392009178338,55.349433846266365
136.337,136.337,113.24235855453068,188.9629861724156,55.38305495687499
136.343,136.343,113.2510915344504,189.0440041301124,55.40963654194409
136.35,136.35,113.25658449186793,189.1265421771118,55.427227935103005
136.357,136.357,113.25702937850646,189.21081515468825,55.43485832235065
136.364,136.364,113.26411322665443,189.29777596820583,55.43730795666888
136.37,136.37,113.2821259331009,189.38914497562467,55.44944528420164
136.377,136.377,113.31538510748254,189.48733189755575,55.47081991052757
136.384,136.384,113.36896905266451,189.5952582953439,55.50122485632547
136.391,136.391,113.44906260787461,189.71606731676403,55.5406922382215
136.397,136.397,113.56279226480474,189.85279557210123,55.58960444813719
136.404,136.404,113.71494764996177,190.00916310025895,55.649013650552575
136.411,136.411,113.90487542308531,190.1923421216344,55.720256271183615
136.418,136.418,114.12873758823326,190.41510955203216,55.80339862268834
136.424,136.424,114.38145178284972,190.6934419255099,55.89558850938166
136.431,136.431,114.65230334578135,191.03902884664245,55.99081033247683
136.438,136.438,114.92095638394402,191.45002160459106,56.08098282261992
136.445,136.445,115.16012336572109,191.9047905345987,56.15700345185003
136.451,136.451,115.34088207361361,192.36196382653742,56.209277424456374
136.458,136.458,115.43586020970476,192.76633278004002,56.22840938872718
136.465,136.465,115.45060580933293,193.05762793471584,56.25049304090494
136.472,136.472,115.59333929504017,193.17956623355727,56.31930228101375
136.478,136.478,115.87459932764703,193.2711417927147,56.43661077303735
136.485,136.485,116.29577225045848,193.6019131424817,56.59944609616245
136.492,136.492,116.84800521131586,194.17562165944906,56.799557448419954
136.499,136.499,117.51182747453309,194.97395485836125,57.02364267210223
136.505,136.505,118.25795984183564,195.95922628629387,57.25430423817725
136.512,136.512,119.04931526251329,197.07899860448327,57.471730661029184
136.519,136.519,119.84413903269997,198.27206877461933,57.65622958590697
136.526,136.526,120.6001495802458,199.47519446680064,57.79131519860468
136.532,136.532,121.27928383738355,200.6293735647205,57.86650201832047
136.539,136.539,121.85010141622496,201.68271044796677,57.8779983988371
136.546,136.546,122.28039255162575,202.58354054295057,57.9307449136492
136.553,136.553,122.52223768058421,203.25963461274964,58.0495393337149
136.559,136.559,122.53164616919732,203.5995269669964,58.23503021396147
136.566,136.566,122.84025901370632,203.72859977660127,58.47645743141544
136.573,136.573,123.44646095712334,204.42113850406707,58.74342803197445
136.58,136.58,124.29009371057455,205.676246527698,58.9892989663254
136.586,136.586,125.27215160339503,207.3815393898668,59.16496678187749
136.593,136.593,126.28483398351206,209.33646703665644,59.233096854065266
136.6,136.6,127.23423201083425,211.29724833767764,59.29063252099376
136.607,136.607,128.0496843365278,213.0286652371576,59.47187045971586
136.613,136.613,128.68426393002983,214.3495184423653,59.757618442349184
136.62,136.62,129.11356782678286,215.16140887090566,60.116037865272006
136.627,136.627,129.3360301872839,215.4574517291336,60.507879484334424
136.634,136.634,129.37320026500856,215.60168084599368,60.89183611898265
136.64,136.64,129.47960448774955,216.05110025958913,61.22936971463139
136.647,136.647,129.67494779315732,216.64373291824353,61.488368736137396
136.654,136.654,129.90115517518362,217.2256198344518,61.64526808785018
136.661,136.661,130.10610513677972,217.67740335672616,61.685369233364135
136.667,136.667,130.25318014936235,217.92587833883363,61.768888897884544
136.674,136.674,130.33126128981831,217.94282182570862,61.975541992993705
136.681,136.681,130.36021486558784,218.14783165302396,62.29651356302528
136.688,136.688,130.38391870881355,218.53583517277505,62.71314571027788
136.694,136.694,130.4496156020015,219.04664751418696,63.197071285540325
136.701,136.701,130.5827744199608,219.60682863363292,63.713037940833345
136.708,136.708,130.77013051749793,220.1375025260205,64.22363594434337
136.715,136.715,130.95845432049137,220.56172737569838,64.69414063038589
136.721,136.721,131.06812957947957,220.81097532083808,65.095803219557
136.728,136.728,131.12166582611158,220.83055660375402,65.40684647881211
136.735,136.735,131.40673628861987,221.07658341737533,65.61180493941336
136.742,136.742,131.96034350905902,221.6007279911499,65.7007321702418
136.748,136.748,132.78142660605198,222.38818563914774,65.7318437477674
136.755,136.755,133.82683297790902,223.3954828719676,65.87672040622017
136.762,136.762,134.99297013561886,224.55100018179994,66.1140947529069
136.769,136.769,136.09027835143854,225.7465950066526,66.41714512258415
136.775,136.775,136.87175626774325,226.81984971253232,66.77153127060859
136.782,136.782,137.13806386046826,227.56407289969215,67.17670103640044
136.789,136.789,137.44365166099956,227.7932060253626,67.63214096635716
136.796,136.796,138.22871927687538,228.16417004513718,68.12669577516348
136.802,136.802,139.31072232238753,229.08393646375393,68.63446881126117
136.809,136.809,140.48298594041893,230.38972428844963,69.116693508199
136.816,136.816,141.56055177147246,231.86529627434427,69.5298935456502
136.823,136.823,142.40577645392563,233.30047467869062,69.83628624355961
136.829,136.829,142.93916588715177,234.53446568222267,70.01140219768217
136.836,136.836,143.1391890186864,235.4772721806607,70.04714175108573
136.843,136.843,143.2445116044396,236.11025449005635,70.14293124814476
136.85,136.85,143.5912136039115,236.4712604814114,70.3490597438822
136.856,136.856,144.09435755901137,236.63061097193074,70.63464620097521
136.863,136.863,144.660991559454,236.66431531277004,70.96287341150425
136.87,136.87,145.20021759213586,236.69678799030754,71.29500937871148
136.877,136.877,145.63117352167575,236.76454136715193,71.59496370425533
136.883,136.883,145.88924531708867,236.8661528338131,71.83371836579026
136.89,136.89,145.93059941171788,237.02263234461913,71.99275068993087
136.897,136.897,146.1259407578678,237.26686170453345,72.06587362301707
136.904,136.904,146.55296101087058,237.63306724583686,72.07253805686693
136.91,136.91,147.18348137206183,238.14842589186014,72.14236293580797
136.917,136.917,147.97131474080987,238.8274472027386,72.25130445917124
136.924,136.924,148.8595643281882,239.6689234095161,72.37158760441898
136.931,136.931,149.7878999621745,240.65519821626054,72.47529661866756
136.937,136.937,150.69836815201182,241.75345887455418,72.53729971652923
136.944,136.944,151.53844100898,242.91730802880832,72.53803074931646
136.951,136.951,152.25667907720936,244.08458293746378,72.62020436501354
136.958,136.958,152.79009367066806,245.1688375887502,72.80314076104185
136.964,136.964,153.06156609620592,246.05020738035878,73.10293809192578
136.971,136.971,153.1154159095278,246.58204197454185,73.51829261492843
136.978,136.978,153.50347664399783,246.62768873188844,74.01746833030028
136.985,136.985,154.1667098153905,247.13893639025875,74.5417489601597
136.991,136.991,155.00119273509316,248.1722487639451,75.02495073627124
136.998,136.998,155.89281003626581,249.5889443127239,75.41493944588184
137.005,137.005,156.74139636283695,251.1826261958915,75.68565684389158
137.012,137.012,157.47116733379173,252.72845836381066,75.8372635474744
137.018,137.018,158.0345866696355,254.02961720366164,75.88850610433185
137.025,137.025,158.4140577033041,254.95142840853396,75.9095533086795
137.032,137.032,158.62013011105014,255.4378748012585,75.97260879124404
137.039,137.039,158.6849242090746,255.5102462172313,76.04972339209608
137.045,137.045,158.71733307900595,255.76882325971255,76.11798705473802
137.052,137.052,158.8005683101224,256.23751116751765,76.16093199789829
137.059,137.059,158.89348328233277,256.7846054399995,76.16892025654661
137.066,137.066,158.9645861307185,257.29152725570464,76.19905587717693
137.072,137.072,158.99326003989705,257.6697837376855,76.26470316887367
137.079,137.079,159.01783031158243,257.8691577618339,76.35802448753077
137.086,137.086,159.09883892694748,257.87792366766723,76.46654507383322
137.093,137.093,159.2335774059941,258.03860802603975,76.57498771149203
137.099,137.099,159.41317723811528,258.3248087940852,76.66904765021401
137.106,137.106,159.62398962559593,258.6845343940838,76.73936530903066
137.113,137.113,159.8544395976715,259.0747671310003,76.78334493299977
137.12,137.12,160.10052801672637,259.4745793318251,76.80482011892643
137.126,137.126,160.36368362139342,259.88928790702306,76.81291948051583
137.133,137.133,160.64697613801405,260.34496517056914,76.82040522911846
137.14,137.14,160.95544991246328,260.87548127084665,76.84071897383224
137.147,137.147,161.29705195735002,261.50583125596887,76.88410157587266
137.153,137.153,161.6792529911179,262.23730899081784,76.95493941660457
137.16,137.16,162.10157454525603,263.040699569728,77.05186447059698
137.167,137.167,162.54695584945006,263.86008775458424,77.16991556791518
137.174,137.174,162.97458225066907,264.6246302935293,77.30285653422423
137.18,137.18,163.31825000038103,265.26394270629436,77.44434516369324
137.187,137.187,163.49620885515384,265.72334524297986,77.58827217436966
137.194,137.194,163.5592993224608,265.97468120646994,77.72902099962286
137.201,137.201,163.90850661452365,266.0189991518041,77.86132834816667
137.207,137.207,164.54646839251154,266.1566680726873,77.97950347633692
137.214,137.214,165.43713862892952,266.4364465884488,78.07693740800369
137.221,137.221,166.5180857286207,266.81273988240315,78.14671188910799
137.228,137.228,167.7125453488993,267.2418746752882,78.18287117362102
137.234,137.234,168.93861225358512,267.6882314881419,78.18454284250848
137.241,137.241,170.11711837455744,268.1285802011843,78.22685886707731
137.248,137.248,171.17969087219439,268.5538375857122,78.31215718241938
137.255,137.255,172.0765374884138,268.96793552563366,78.44281980134637
137.261,137.261,172.78173156295304,269.38443576678685,78.6208514958968
137.268,137.268,173.29395797115194,269.82197140068996,78.84667963583381
137.275,137.275,173.63257754269011,270.2995457252283,79.11777263402465
137.282,137.282,173.83059444960705,270.83251367379245,79.4277347701047
137.288,137.288,173.9266404998995,271.429785746347,79.7662836316583
137.295,137.295,173.95779022500292,272.09257880945273,80.12015613720419
137.302,137.302,173.96117206367305,272.8147814236278,80.47469703526681
137.309,137.309,173.97807030227472,273.58457981948703,80.81571245395553
137.315,137.315,173.9971303595688,274.3867692744573,81.13114294326769
137.322,137.322,174.01527460504647,275.2051871897382,81.41223393020604
137.329,137.329,174.03539261941032,276.02472259410825,81.6540762386419
137.336,137.336,174.06378085692418,276.8325996562746,81.85554518526473
137.342,137.342,174.10783083216214,277.61902027573774,82.0187594475242
137.349,137.349,174.1742023540636,278.37735208485134,82.14824094416835
137.356,137.356,174.26748357385532,279.10392979061606,82.24998142116264
137.363,137.363,174.38932800404828,279.7975164179858,82.33056750534027
137.369,137.369,174.5381581678389,280.45859020904265,82.39641291277975
137.376,137.376,174.70946720572437,281.08868225213456,82.45308952125252
137.383,137.383,174.8965112165994,281.68997903197186,82.50465788489102
137.39,137.39,175.0911016699538,282.26546505468605,82.5530031875902
137.396,137.396,175.28467221358343,282.81963554235625,82.5977281324435
137.403,137.403,175.47012636065008,283.35901345296514,82.63701734632808
137.41,137.41,175.64392067854564,283.89131048592844,82.66885577355042
137.417,137.417,175.8067559836819,284.42303705730563,82.69188339343738
137.423,137.423,175.9623970305902,284.95683714463615,82.70588765866927
137.43,137.43,176.11586157585347,285.49009679531054,82.71199866989474
137.437,137.437,176.27205102270872,286.0153326349181,82.71245207799811
137.444,137.444,176.43485512739466,286.5217850978844,82.7149201243263
137.45,137.45,176.60640957214756,286.99729660320907,82.71774847262479
137.457,137.457,176.78642135024802,287.42985784498677,82.71902851960185
137.464,137.464,176.97175449131592,287.8086884280375,82.72039461011698
137.471,137.471,177.1564418117312,288.1249142753725,82.72488775517816
137.477,137.477,177.3321548888735,288.37183092233084,82.73283932089734
137.484,137.484,177.4892108377037,288.5447410299079,82.74490097728163
137.491,137.491,177.61811383158974,288.64053167336556,82.76218411449344
137.498,137.498,177.71129377236795,288.65732256471784,82.78593104766868
137.504,137.504,177.76449528282185,288.72016187370303,82.81687125878615
137.511,137.511,177.7773793673408,288.8615535860486,82.85458739795853
137.518,137.518,177.8015170629492,289.07799749057915,82.89719665188095
137.525,137.525,177.85662724544653,289.3629252533745,82.94149806922329
137.531,137.531,177.93491782715483,289.70642216608667,82.98354668586661
137.538,137.538,178.02759155907967,290.0954598504014,83.01947522542342
137.545,137.545,178.12518871099127,290.5146809433813,83.04630283184096
137.552,137.552,178.21777908271903,290.9477903500154,83.06246054503552
137.558,137.558,178.29536247268248,291.3794411638992,83.06785958646935
137.565,137.565,178.34861305398894,291.79715221769794,83.07222208542777
137.572,137.572,178.36981694415644,292.19269321937844,83.08496247063414
137.579,137.579,178.3859466913743,292.5626032162311,83.10505504358098
137.585,137.585,178.44190503855543,292.90777333520083,83.1323408940019
137.592,137.592,178.5376659717453,293.232275769346,83.16760122742126
137.599,137.599,178.6715189285016,293.5418758301788,83.2121757016362
137.606,137.606,178.8411514390091,293.8426984441015,83.2673294596553
137.612,137.612,179.04458238907054,294.1403058777514,83.33369958634034
137.619,137.619,179.28066296025406,294.4392197578502,83.41108017800617
137.626,137.626,179.54907931350522,294.7428136223479,83.49863250759415
137.633,137.633,179.8499606082909,295.05343565783386,83.59541943304842
137.639,137.639,180.18321876939757,295.37258949712333,83.70098415851966
137.646,137.646,180.54781067117497,295.70110963376567,83.81569275575374
137.653,137.653,180.9412212406724,296.0393519576583,83.94074364550839
137.66,137.66,181.35934021734073,296.38740118025873,84.07787802166875
137.666,137.666,181.79665573152712,296.74535654042813,84.22890495033911
137.673,137.673,182.24656185170662,297.1137566876572,84.39523614824347
137.68,137.68,182.70161346134182,297.4940511046448,84.57756932780656
137.687,137.687,183.15374657463224,297.8889399846637,84.7757228259172
137.693,137.693,183.5945887359973,298.30243530513883,84.98856908992445
137.7,137.7,184.01586755669626,298.73955501544333,85.214026543068
137.707,137.707,184.4098503504355,299.20562953165967,85.44911070928445
137.714,137.714,184.76987795131092,299.7053327158289,85.69007003364351
137.72,137.72,185.09112040300016,300.2417097966886,85.93260465947283
137.727,137.727,185.37143533155714,300.8154794772118,86.17213384379639
137.734,137.734,185.6119167697414,301.42475429961866,86.40407280045207
137.741,137.741,185.81678697856444,302.0652221850153,86.62411535018167
137.747,137.747,185.99262166696093,302.730813689392,86.82854543910747
137.754,137.754,186.1471651188065,303.4148414864178,87.0145733180901
137.761,137.761,186.28795171443534,304.1117598867885,87.18059862253828
137.768,137.768,186.4200291044733,304.81935792642923,87.33188385883739
137.774,137.774,186.5261695614148,305.5522955996814,87.49025675775673
137.781,137.781,186.530493208573,306.3801725802675,87.68252870864647
137.788,137.788,186.79355321336968,307.44351096233356,87.90985730884815
137.795,137.795,187.41706549763612,308.8796350275267,88.13904063843671
137.801,137.801,188.34570128892545,310.70686331312817,88.31761039910208
137.808,137.808,189.37936105018161,312.7844637606336,88.38954138262707
137.815,137.815,190.277173127439,314.8713618427426,88.46678400726059
137.822,137.822,190.8579048827846,316.71534079101883,88.70494188747088
137.828,137.828,191.04814553193032,318.11869457083355,89.07835818953706
137.835,137.835,191.21680853880548,318.9718576940235,89.53135105150524
137.842,137.842,191.6401941309001,319.2610590026727,89.99403025415914
137.849,137.849,192.1837560823352,319.46718911373694,90.39859291021347
137.855,137.855,192.72074190658634,320.0444160376301,90.69110828498857
137.862,137.862,193.1562576570501,320.8442981813247,90.8378086026667
137.869,137.869,193.4349722961277,321.72313194823755,90.84828071349749
137.876,137.876,193.53877306872212,322.56270801412103,91.00540452777639
137.882,137.882,193.59672020948454,323.280348454078,91.28014235407768
137.889,137.889,193.78057839354796,323.8304394287476,91.63067178203228
137.896,137.896,194.04349390966667,324.2014078869669,92.00894021170552
137.903,137.903,194.33942719168624,324.4105721371018,92.3670910347576
137.909,137.909,194.63151261256283,324.49759532130383,92.66374708361724
137.916,137.916,194.8962701765996,324.5168117245852,92.86964213591195
137.923,137.923,195.12502791131445,324.52876349229393,92.97124372753771
137.93,137.93,195.32292895752775,324.5912609344782,92.97128871271985
137.936,137.936,195.50501616218986,324.7507696235321,93.05637833492851
137.943,137.943,195.6905212063446,325.0358538205309,93.20130759474036
137.95,137.95,195.89788035524202,325.45443444341026,93.37759456904297
137.957,137.957,196.14163845800658,325.9955341987609,93.55875346403647
137.963,137.963,196.4307131770289,326.63477133646865,93.72402951664948
137.97,137.97,196.76765084716635,327.3415685632876,93.86041037106085
137.977,137.977,197.14888203604514,328.0856358608594,93.9630458314562
137.984,137.984,197.56554681640637,328.84120349812656,94.03434684962546
137.99,137.99,198.00450023036316,329.588836353095,94.08216434135556
137.997,137.997,198.44971051391533,330.3154461041237,94.11747709963815
138.004,138.004,198.8842853351905,331.0132670742333,94.15194987407804
138.011,138.011,199.29290238914933,331.6785048080819,94.19575438216324
138.017,138.017,199.66410676502568,332.3102331579411,94.25607912087715
138.024,138.024,199.99197691589794,332.90980891473015,94.33657298610034
138.031,138.031,200.27698183051658,333.4807206263449,94.43755958748064
138.038,138.038,200.5259317032107,334.0285403179756,94.55650079588858
138.044,138.044,200.75069433370945,334.56056309448195,94.68824102198272
138.051,138.051,200.9655007167766,335.084894527282,94.82491650875991
138.058,138.058,201.18274167741728,335.6084432853438,94.95562073873806
138.065,138.065,201.40607124122928,336.13217523961487,95.0659732888544
138.071,138.071,201.62065549921508,336.6425794006746,95.13840229878903
138.078,138.078,201.78770577862164,337.1025690291585,95.15510301413053
138.085,138.085,201.85475558502725,337.45052477400816,95.2051948475312
138.092,138.092,201.92879732611226,337.6155384196136,95.31783560225533
138.098,138.098,202.1523001971152,337.6859178420701,95.46944637721968
138.105,138.105,202.4990460159783,338.00144054145255,95.62203578871436
138.112,138.112,202.92221057322126,338.522053670894,95.73484628837896
138.119,138.119,203.37035039000057,339.16839365820044,95.77621435405024
138.125,138.125,203.79780119718055,339.84154956244004,95.82180914635104
138.132,138.132,204.170090799106,340.44417232517156,95.95265119048757
138.139,138.139,204.46611624101908,340.898269754653,96.15288588958809
138.146,138.146,204.67751763636988,341.15668269332565,96.39720823594612
138.152,138.152,204.8063361862904,341.20676389410795,96.6554109278535
138.159,138.159,204.8627108358061,341.34639062497746,96.89639573087729
138.166,138.166,204.8631771953719,341.633685105456,97.09203734284353
138.173,138.173,204.89759834109682,342.01342359281307,97.22091164614689
138.179,138.179,204.9437268078968,342.4279029248927,97.27105634509759
138.186,138.186,204.9784107592053,342.82646031438577,97.30120157533845
138.193,138.193,204.9813081074347,343.1722841267592,97.4037124508849
138.2,138.2,205.02485043537206,343.44459342978473,97.56293101326024
138.206,138.206,205.12340795197403,343.6358304057432,97.75699918076549
138.213,138.213,205.2797497262878,343.7472153553431,97.95984264487458
138.22,138.22,205.4885132838823,343.786054307555,98.14517104817253
138.227,138.227,205.73458026035073,343.80738933272846,98.29170225939129
138.233,138.233,205.99513323714578,343.872087404306,98.38634923605832
138.24,138.24,206.24248310965808,343.959495069935,98.42388457982176
138.247,138.247,206.44605435307614,344.0456854736016,98.44310630704364
138.254,138.254,206.575230545547,344.1040567222436,98.51574264947962
138.26,138.26,206.60324740822634,344.10622197898635,98.6376519755825
138.267,138.267,206.69579211505163,344.18859912683183,98.80496771900866
138.274,138.274,206.91847851281682,344.38074689491526,99.01364320171176
138.281,138.281,207.26975343459083,344.701272085245,99.25789686989523
138.287,138.287,207.73696898773593,345.15920178152123,99.52861737016207
138.294,138.294,208.29771146039138,345.7520973123438,99.8126235299739
138.301,138.301,208.92215657827623,346.4655480760566,100.0931508056472
138.308,138.308,209.5763099669732,347.27424553595284,100.35161360324723
138.314,138.314,210.2249568874165,348.1438550498883,100.56995739285452
138.321,138.321,210.83123149062772,349.03153045167466,100.73190836431127
138.328,138.328,211.35165459638515,349.8835475641257,100.82281257798846
138.335,138.335,211.73259121669557,350.63143466753803,100.83104511176519
138.341,138.341,211.917502173542,351.19132807543707,100.90907933650803
138.348,138.348,211.96859236077896,351.4728353469404,101.06288099551743
138.355,138.355,212.2585324841288,351.54531080782203,101.26438735265405
138.362,138.362,212.74633007610217,352.0037180517903,101.4699731618496
138.368,138.368,213.35954263909474,352.8128830214506,101.62963408161644
138.375,138.375,214.01649735652424,353.86698591573384,101.70004347148456
138.382,138.382,214.64468706486898,355.011251401101,101.7452276416963
138.389,138.389,215.1895592972914,356.0796593169438,101.91093345425458
138.395,138.395,215.61592713893592,356.93266177282453,102.18133035366728
138.402,138.402,215.90612342047308,357.48313532678077,102.52423064883187
138.409,138.409,216.05762500504986,357.7063280143668,102.89787647571455
138.416,138.416,216.0809732140713,357.77807273709016,103.25833923059372
138.422,138.422,216.16463534010308,358.0716560185489,103.56591226803907
138.429,138.429,216.32740561677045,358.4938640347419,103.78940307330588
138.436,138.436,216.53976727368226,358.9495702979554,103.90796567578334
138.443,138.443,216.77556140512777,359.3544557520222,103.91120421844037
138.449,138.449,217.01480548183633,359.6435551432092,104.02365489040069
138.456,138.456,217.2431506643887,359.7776862196751,104.24262028118743
138.463,138.463,217.4480345960074,359.8074714534987,104.55029977140063
138.47,138.47,217.61301491814163,359.97836867288964,104.92196055821029
138.476,138.476,217.7132546193038,360.2382876067394,105.32839299380093
138.483,138.483,217.71489216569876,360.51295883260997,105.7387233276162
138.49,138.49,217.85085347361638,360.7172367679364,106.12299044498909
138.497,138.497,218.16113916666586,360.7690033866335,106.45400571687007
138.503,138.503,218.67093885592496,360.93476637666845,106.70837831621681
138.51,138.51,219.38502367497065,361.3544735816339,106.86710960847368
138.517,138.517,220.2831765564024,362.0281109028277,106.9190077806845
138.524,138.524,221.31480901579997,362.91701429801526,106.96855250860719
138.53,138.53,222.37252798109782,363.9488674142526,107.09733483979352
138.537,138.537,223.2634927751207,365.01880925565877,107.28906574638974
138.544,138.544,223.74933907433675,365.9836450055352,107.5561737645538
138.551,138.551,223.84121036794411,366.6791607275773,107.9343900937527
138.557,138.557,224.5298423486463,366.9737096859004,108.46010677112692
138.564,138.564,225.67746413132218,367.12626368108687,109.14915999432472
138.571,138.571,227.04899076233195,367.67063260553584,109.98139032981526
138.578,138.578,228.39129523675237,368.4725895249706,110.89731546641808
138.584,138.584,229.50073220758983,369.3623577861832,111.81034547086048
138.591,138.591,230.25893361300342,370.1805010178657,112.62753941002276
138.598,138.598,230.63451305332381,370.8119931173383,113.27012171076605
138.605,138.605,230.66406159638137,371.2008939538984,113.68819307409383
138.611,138.611,230.90117091176478,371.3473076858709,113.86679267046023
138.618,138.618,231.30605488673,371.40117840147866,113.90999837499902
138.625,138.625,231.7791781364213,371.5896256518751,114.13250362596843
138.632,138.632,232.2355295385304,371.84151368976404,114.47735191327487
138.638,138.638,232.6155987899141,372.0939638451034,114.8844265940072
138.645,138.645,232.88930980752647,372.30049874049143,115.30061783625823
138.652,138.652,233.05219973211226,372.43440035170113,115.68646053831111
138.659,138.659,233.11742586589074,372.48808736403845,116.01839545760427
138.665,138.665,233.12687376352338,372.5069448948042,116.28768230477507
138.672,138.672,233.18402800195503,372.58119739627654,116.49747976074173
138.679,138.679,233.2623457398416,372.6899484089335,116.6591599422147
138.686,138.686,233.3392816253583,372.81281329423103,116.78842838068572
138.692,138.692,233.398855090949,372.9324948338513,116.90168193852419
138.699,138.699,233.4326782324461,373.03620124209704,117.0131285422831
138.706,138.706,233.43936311295784,373.1163000178729,117.13300911235409
138.713,138.713,233.45582403471013,373.17032627247215,117.2668441946188
138.719,138.719,233.48799817250324,373.2004013560807,117.41549115507424
138.726,138.726,233.52693971992818,373.21212868609564,117.57589242203672
138.733,138.733,233.5639138032711,373.2130898600805,117.74232235104948
138.74,138.74,233.59162330933333,373.21502978914083,117.90775567104659
138.746,138.746,233.60488463690947,373.2167763321882,118.06500961521107
138.753,138.753,233.60871588350176,373.2264981218923,118.20754982408663
138.76,138.76,233.62946126278896,373.2459824765681,118.33002152338334
138.767,138.767,233.66422174371604,373.27508947559033,118.42853123174207
138.773,138.773,233.70799979474035,373.3127323676376,118.50061013114491
138.78,138.78,233.7546742662286,373.35776955540445,118.54488278860545
138.787,138.787,233.79806382393053,373.4095060751811,118.56068493745491
138.794,138.794,233.83285808168907,373.46779665887914,118.573418178204
138.8,138.8,233.85526926102253,373.53284873923417,118.61381769303469
138.807,138.807,233.86336324447123,373.604823314676,118.67938950549683
138.814,138.814,233.86964670077901,373.6833986840935,118.76531322293519
138.821,138.821,233.8887804948028,373.7674873429817,118.86416269895628
138.827,138.827,233.91815759437563,373.8551990646991,118.96630864828873
138.834,138.834,233.95465334177885,373.94404524053965,119.06097127995808
138.841,138.841,233.99514678078447,374.03132642981745,119.13768568388107
138.848,138.848,234.03696130550946,374.1145807331004,119.18783883689625
138.854,138.854,234.0781079079668,374.19192898414747,119.20590844481106
138.861,138.861,234.1171902184007,374.2621968481502,119.22169260261525
138.868,138.868,234.15298731607223,374.3247967366905,119.2693523191538
138.875,138.875,234.18400988094615,374.37949757697436,119.34373900014079
138.881,138.881,234.20849307174933,374.4263172654078,119.43754085264105
138.888,138.888,234.22499617523928,374.46566473964435,119.54257915744621
138.895,138.895,234.2332018544407,374.49861478204457,119.65120696955854
138.902,138.902,234.23430590297556,374.5270921976764,119.75757681459064
138.908,138.908,234.23786101703757,374.5538065173564,119.8584906240322
138.915,138.915,234.243149656342,374.5818725720026,119.95345141365311
138.922,138.922,234.24776128423002,374.61420894267246,120.0437142009143
138.929,138.929,234.25068759166044,374.653002352775,120.13079789243257
138.935,138.935,234.25273015858974,374.6994305136226,120.21538608593013
138.942,138.942,234.25631273882053,374.7535378303801,120.29707588812866
138.949,138.949,234.26479411729434,374.81418640626174,120.37462560794022
138.956,138.956,234.2815173306509,374.8792292883941,120.44621233960677
138.962,138.962,234.30896625321904,374.94598555223234,120.50962725452536
138.969,138.969,234.348257629782,375.0118507859994,120.56260065203654
138.976,138.976,234.39894130417193,375.0748047615856,120.6033370346611
138.983,138.983,234.45905688773445,375.1336813709407,120.6311021750643
138.989,138.989,234.52543619989456,375.188183477583,120.64660625007333
138.996,138.996,234.5941552450585,375.2387185575305,120.65204103266692
139.003,139.003,234.66102115410447,375.2861587411694,120.6532580858576
139.01,139.01,234.72208118618582,375.3315740004537,120.65691039544527
139.016,139.016,234.7740969496516,375.37599442701526,120.65856009418364
139.023,139.023,234.8148100209426,375.4203050503599,120.66278736332454
139.03,139.03,234.84295988666065,375.46530066564367,120.6753036771261
139.037,139.037,234.8582234393433,375.51181344675854,120.69641134248863
139.043,139.043,234.8611764166879,375.56079601816356,120.72431992454308
139.05,139.05,234.86916434084566,375.61327857224484,120.7558866721045
139.057,139.057,234.8861999908001,375.67020024487556,120.78769239356552
139.064,139.064,234.9102372641958,375.73219281123926,120.81694625558282
139.07,139.07,234.93936939188524,375.7994374958177,120.84194929255978
139.077,139.077,234.97196973873358,375.8716978018124,120.86218521494969
139.084,139.084,235.00677409574436,375.94849939850934,120.87824748367844
139.091,139.091,235.04304726870777,376.02933110997014,120.89166026182544
139.097,139.097,235.0809339631437,376.11381705430347,120.90451183823613
139.104,139.104,235.12190896385485,376.2018901002998,120.91892011669356
139.111,139.111,235.16902577608943,376.2939557407709,120.93652712418233
139.118,139.118,235.22679256703125,376.3909286641436,120.95824199181443
139.124,139.124,235.30014190797405,376.4940361613131,120.98470978451
139.131,139.131,235.39263805795824,376.6050259563618,121.0177450349095
139.138,139.138,235.5073116733349,376.72805833918596,121.06086482843399
139.145,139.145,235.64996948870134,376.87268438934393,121.1171625701919
139.151,139.151,235.82723016966835,377.0546104324378,121.18704494470401
139.158,139.158,236.03863182436834,377.2916767130622,121.26905661810675
139.165,139.165,236.27256828720797,377.59601183024466,121.3621911460714
139.172,139.172,236.5093326158084,377.96583600612826,121.46570887028074
139.178,139.178,236.7249976344559,378.3803146137305,121.57574975932154
139.185,139.185,236.89238411771,378.7993006223213,121.68195841382307
139.192,139.192,236.9817695530205,379.1677296973474,121.76707912084866
139.199,139.199,236.9999285978168,379.42308349700596,121.80956490019577
139.205,139.205,237.1515496715421,379.5046059917672,121.83128107613038
139.212,139.212,237.455617875738,379.64617139657247,121.93383889289352
139.219,139.219,237.9203219649944,380.04032176372635,122.12432583533229
139.226,139.226,238.53898083654042,380.6917170606397,122.3973176484702
139.232,139.232,239.28741185398155,381.57857729935716,122.73442928289637
139.239,139.239,240.1243511801234,382.6541752854536,123.10642432170525
139.246,139.246,240.9956705136569,383.85122046627845,123.47756476950053
139.253,139.253,241.8402849525217,385.0877798101639,123.81066869637995
139.259,139.259,242.59110128519308,386.2702322477609,124.06974572020525
139.266,139.266,243.1680073017993,387.2894589468182,124.22023177481515
139.273,139.273,243.4765145019639,388.01545833780176,124.23278390687234
139.28,139.28,243.52297301126478,388.30488521440725,124.37111980921915
139.286,139.286,243.9648389441005,388.5753860570574,124.64395066239767
139.293,139.293,244.7724073557117,389.45639989749617,125.00152468966718
139.3,139.3,245.85290301117112,390.88439018990556,125.37149699898913
139.307,139.307,247.0778777887275,392.68183669455044,125.67888863973224
139.313,139.313,248.31147493195397,394.6004616723534,125.86418695044024
139.32,139.32,249.43068528841323,396.383916012663,125.89395408496283
139.327,139.327,250.33859357241485,397.8236556863291,126.02378771634109
139.334,139.334,250.97300153700286,398.79431184220687,126.29046606100101
139.34,139.34,251.31111745463454,399.26582876099565,126.65081311923792
139.347,139.347,251.36940664919558,399.29365940158385,127.04950258021694
139.354,139.354,251.54201169397888,399.59592422016664,127.42772026230229
139.361,139.361,251.87779637096986,400.09150456106147,127.73087848649745
139.367,139.367,252.3071516449658,400.65018798656104,127.91455290450205
139.374,139.374,252.77291315981714,401.1658777783536,127.94878917468579
139.381,139.381,253.2382853584403,401.56326007107543,128.07652875070698
139.388,139.388,253.68647139295274,401.7983695901953,128.36020872444743
139.394,139.394,254.1116574751697,401.8581512771163,128.77637789359574
139.401,139.401,254.5049484650159,401.95447119687185,129.2875044490199
139.408,139.408,254.8424259630956,402.1544765878461,129.84690718292012
139.415,139.415,255.08136537764224,402.376801775779,130.40455254087007
139.421,139.421,255.1662807784458,402.52282952715683,130.91284018896528
139.428,139.428,255.2903244019688,402.5512499634206,131.3315392602721
139.435,139.435,255.66257444927157,402.83223731895015,131.63133365081853
139.442,139.442,256.29547680451833,403.4068310222162,131.79611214772962
139.448,139.448,257.1664713595279,404.2679804343394,131.82648666016365
139.455,139.455,258.1992802738,405.3565580614761,131.91059571531466
139.462,139.462,259.2399395102698,406.55493220418555,132.0801654671789
139.469,139.469,260.07815559029746,407.67246199002756,132.31639866897635
139.475,139.475,260.53572970798865,408.4539704091006,132.6166751476594
139.482,139.482,260.55300415259086,408.6491583362622,132.98398925009704
139.489,139.489,260.9056439621554,409.1809517955238,133.41412743995662
139.496,139.496,261.4816360427115,410.40534820066716,133.88711785443388
139.502,139.502,262.1221207256474,412.1275161354588,134.36554103876395
139.509,139.509,262.6960255118942,414.0638373921115,134.80135110747872
139.516,139.516,263.1159637234162,415.92513688715405,135.14750335403582
139.523,139.523,263.33970191372254,417.4809520864673,135.3686855010005
139.529,139.529,263.3644918748345,418.5936778905685,135.44791148938378
139.536,139.536,263.5101494355221,419.2237608753356,135.50740576828437
139.543,139.543,263.7754259551275,419.41307600234495,135.68394741949956
139.55,139.55,264.0964400878937,419.57101141619825,135.9411752702042
139.556,139.556,264.4060143205775,419.9642449772339,136.23299409120835
139.563,139.563,264.64321583699285,420.48959621832773,136.51011283474134
139.57,139.57,264.75997560011723,421.0686478435498,136.72775361865402
139.577,139.577,264.7965912749426,421.6528692576947,136.85300095933928
139.583,139.583,265.0041423382954,422.22163467227483,136.8702887065645
139.59,139.59,265.38436548807056,422.7769685286174,136.95682111419885
139.597,139.597,265.92295431708783,423.3370394011571,137.12497948659862
139.604,139.604,266.59091329024193,423.9290638885553,137.33987627791254
139.61,139.61,267.348146337081,424.58195476126707,137.56140128755223
139.617,139.617,268.149008078443,425.31940744839795,137.7516626753243
139.624,139.624,268.9484550129136,426.15452099825853,137.8805523347911
139.631,139.631,269.7068653882793,427.0862893289968,137.9282128329154
139.637,139.637,270.3904762688003,428.0963198243351,137.97273782533563
139.644,139.644,270.962157707703,429.14265694885535,138.11563783261133
139.651,139.651,271.36640666485926,430.1490097945293,138.36014495590882
139.658,139.658,271.5323142855323,430.9965546134085,138.7004494721388
139.664,139.664,271.6563527686571,431.5373498716036,139.1113454651658
139.671,139.671,272.0646884236765,431.6392210962233,139.54586587133443
139.678,139.678,272.6900960912738,432.0378337380539,139.94688564847092
139.685,139.685,273.4320342536538,432.89749619627486,140.26523576123796
139.691,139.691,274.1907214561771,434.0858154254726,140.47341589792242
139.698,139.698,274.8873699523693,435.41331605709695,140.56978475821262
139.705,139.705,275.4689351377461,436.6789424653475,140.57371731292287
139.712,139.712,275.90656048243386,437.71155435354564,140.63169355319093
139.718,139.718,276.1940793627362,438.3992810217346,140.71949189731325
139.725,139.725,276.34540790159616,438.7023150127266,140.8096803290288
139.732,139.732,276.388877705825,438.755357937543,140.88235068720374
139.739,139.739,276.41772731793844,439.08341807935614,140.92566063570987
139.745,139.745,276.48250596030505,439.57578304804656,140.93464935643937
139.752,139.752,276.5505543299365,440.11614335867455,140.96020558542793
139.759,139.759,276.59582709566365,440.6030380162806,141.01753105423504
139.766,139.766,276.6001922302829,440.9636595131975,141.10140072527787
139.772,139.772,276.6469004001936,441.1603146351898,141.20463320584926
139.779,139.779,276.7472673540514,441.1897727303937,141.3196201825969
139.786,139.786,276.89794849969377,441.30408368076576,141.4392914295297
139.793,139.793,277.0933797463114,441.5256416965767,141.55613084354417
139.799,139.799,277.3282380831359,441.81981350867494,141.66161218626016
139.806,139.806,277.597201418958,442.164925837581,141.7486296324024
139.813,139.813,277.89604196933834,442.55593088220064,141.81522596006047
139.82,139.82,278.22465990795394,443.00023339114523,141.86600461911962
139.826,139.826,278.58723348015906,443.50787214071374,141.91040781905167
139.833,139.833,278.9871744934344,444.0800913765448,141.95979597136972
139.84,139.84,279.41901781627575,444.70117939818687,142.02482680708403
139.847,139.847,279.8598111354209,445.33717884406667,142.1131561822017
139.853,139.853,280.26330077619787,445.9423692914711,142.2276404631339
139.86,139.86,280.56305223837336,446.4710933992306,142.36615824214383
139.867,139.867,280.68771096524046,446.88929582063224,142.5232074356019
139.874,139.874,280.7939538049633,447.18046595860557,142.69148954314218
139.88,139.88,281.15715949162654,447.3451267153914,142.86218165982905
139.887,139.887,281.7697762675244,447.396592113533,143.02465312392644
139.894,139.894,282.5932946663821,447.4377374262889,143.16678949755274
139.901,139.901,283.56430985063554,447.5494217739214,143.27599222149814
139.907,139.907,284.6042258718052,447.7131599344287,143.34034010211485
139.914,139.914,285.6321418029164,447.9172509875295,143.3497827083821
139.921,139.921,286.57787246882697,448.15767583584596,143.40206634819165
139.928,139.928,287.39142295921334,448.4370418515496,143.51832163509593
139.934,139.934,288.04685233485714,448.7622261606684,143.69536643474018
139.941,139.941,288.54070857308005,449.1414306414836,143.92469333026762
139.948,139.948,288.88670892677254,449.58125684134154,144.19365473752183
139.955,139.955,289.1088380078144,450.0843793662333,144.4874041808567
139.961,139.961,289.23483750858315,450.6483348173153,144.79101485642556
139.968,139.968,289.2913089688203,451.26556048652964,145.0912619622154
139.975,139.975,289.3007064726522,451.9244185513082,145.37779902096983
139.982,139.982,289.32146057297814,452.6108227062529,145.64368600327109
139.988,139.988,289.36108368474555,453.31009580385165,145.88535640831188
139.995,139.995,289.4131354835652,454.00872412656236,146.10217094615828
140.002,140.002,289.4747581621461,454.6957446706801,146.29573152915668
140.009,140.009,289.5453531512493,455.36358073419956,146.46912934530803
140.015,140.015,289.62540100065365,456.0082763681178,146.6262631264632
140.022,140.022,289.7154816083772,456.62918206686095,146.77128163194516
140.029,140.029,289.815600785279,457.22813840639685,146.9081220105246
140.036,140.036,289.92497535296053,457.80831583173045,147.04008365823495
140.042,140.042,290.0422551792746,458.3730663851976,147.16939655706565
140.049,140.049,290.16589092462044,458.92515974777683,147.29681800027873
140.056,140.056,290.29437072613433,459.4666678557893,147.42137136721306
140.063,140.063,290.42653729087044,459.99955315191175,147.54032321086268
140.069,140.069,290.5624505715049,460.5264844393982,147.64949008780405
140.076,140.076,290.7045484540413,461.0509447836824,147.7439731492171
140.083,140.083,290.8580089018307,461.5761326865818,147.81918762246502
140.09,140.09,291.0296242074976,462.1032690744968,147.87184163985214
140.096,140.096,291.22579520541103,462.6305027375448,147.90064025509665
140.103,140.103,291.4508270703932,463.1530695503641,147.90660940839706
140.11,140.11,291.70614858360415,463.66441932990847,147.92029471233565
140.117,140.117,291.9902887818168,464.15752542167183,147.9489542852923
140.123,140.123,292.2992122954501,464.6256762496321,147.98729395981397
140.13,140.13,292.6269474705184,465.062579200143,148.03027863966705
140.137,140.137,292.96672165075955,465.4621563120615,148.0737643602267
140.144,140.144,293.31262703163225,465.818487548315,148.11472719509052
140.15,140.15,293.66139951452243,466.1261083256814,148.15110760924557
140.157,140.157,294.0136388657572,466.3806892318955,148.1815253779315
140.164,140.164,294.3739779266229,466.5799978900778,148.2051274810402
140.171,140.171,294.75012737439783,466.72484113908723,148.22162832736876
140.177,140.177,295.15098645153284,466.81954243750926,148.23145367055517
140.184,140.184,295.584220503493,466.8715742263101,148.2358407738828
140.191,140.191,296.0539890398562,466.890245601448,148.23676739764682
140.198,140.198,296.55944032891944,466.89583265631,148.23683657356327
140.204,140.204,297.0941308238154,466.91917827955086,148.23839327194784
140.211,140.211,297.64619950217497,466.9586403052057,148.24412106455392
140.218,140.218,298.199063344489,467.018997993371,148.2565051729606
140.225,140.225,298.732461522919,467.11195436613673,148.27822431969443
140.231,140.231,299.22380066976996,467.25561331737447,148.31240857949982
140.238,140.238,299.64968045944244,467.4732701780246,148.3626054140967
140.245,140.245,299.9871377877972,467.79184931142686,148.43231740632316
140.252,140.252,300.2141048404365,468.24016999586706,148.52424901449314
140.258,140.258,300.30922272245954,468.8469754329132,148.63959218195313
140.265,140.265,300.36637645499354,469.6380833257496,148.77759392145555
140.272,140.272,300.5932205765488,470.63166595377845,148.93541591843024
140.279,140.279,301.00003201949323,471.83203001271266,149.10826099007906
140.285,140.285,301.5858137714392,473.2246882750442,149.28983049508878
140.292,140.292,302.3368250868229,474.7757521418034,149.47311215862374
140.299,140.299,303.22852725375805,476.43610634333027,149.65127997070394
140.306,140.306,304.2298544121061,478.1484028067566,149.81833094395708
140.312,140.312,305.30803086731225,479.8544939442534,149.96926927981403
140.319,140.319,306.4321308686085,481.50180357616205,150.10008328356687
140.326,140.326,307.57427221135987,483.0478707849261,150.20791568446884
140.333,140.333,308.7086142808278,484.46255220885064,150.2915181205507
140.339,140.339,309.8094794320027,485.7278462043642,150.35171163191603
140.346,140.346,310.85022568867515,486.8360846730645,150.3915057209687
140.353,140.353,311.8037542637963,487.78757957588306,150.4156947542425
140.36,140.36,312.6443433494828,488.5884496091382,150.42998648496842
140.366,140.366,313.3497870282935,489.2487675412351,150.4399239133409
140.373,140.373,313.90289238984303,489.7808782424638,150.4499208637916
140.38,140.38,314.29191566833947,490.19780289769807,150.4626424764232
140.387,140.387,314.5101814767873,490.5118378056643,150.4788288178699
140.393,140.393,314.55553870278214,490.7335399650481,150.497516317672
140.4,140.4,314.68115554188023,490.8710840003218,150.51649681880784
140.407,140.407,314.9724485379336,490.92975425085774,150.532858060895
140.414,140.414,315.4220837949537,490.9480179276652,150.54352419452394
140.42,140.42,316.02246105636135,491.04489605919326,150.5457459731725
140.427,140.427,316.7673666786082,491.2256838636638,150.5539916579408
140.434,140.434,317.65270316691664,491.4988423941324,150.5737080539872
140.441,140.441,318.6757839826129,491.87481890236853,150.60472560869647
140.447,140.447,319.83340461429844,492.36403692918174,150.64575433435334
140.454,140.454,321.1192585789965,492.97431759185446,150.69464315434095
140.461,140.461,322.52123731844085,493.70807051826824,150.7487549858132
140.468,140.468,324.0192281421185,494.5595562432164,150.8052891383309
140.474,140.474,325.58396112970553,495.5126873707098,150.86137151793463
140.481,140.481,327.1771264809533,496.53992030187356,150.91388994687196
140.488,140.488,328.7529447192178,497.60276631288434,150.95923930754464
140.495,140.495,330.2615070068184,498.6543093006127,150.99319980435226
140.501,140.501,331.65366517474746,499.6432187358239,151.01100340377835
140.508,140.508,332.8862391947436,500.5177513188532,151.0146561396501
140.515,140.515,333.9259710958077,501.22837462783565,151.04578463946774
140.522,140.522,334.74690538576215,501.73061945346757,151.11638114162776
140.528,140.528,335.3012348860062,501.9774761445057,151.25337789941227
140.535,140.535,335.4719934840897,502.07229177650686,151.48745523930577
140.542,140.542,335.8449913198454,502.65067953821347,151.82178281104072
140.549,140.549,336.82896077384504,503.8291795034068,152.22060603121352
140.555,140.555,338.2907965494586,505.5800454028658,152.6254042828771
140.562,140.562,339.93875101246084,507.70326312926795,152.97489227875062
140.569,140.569,341.4556424696367,509.8992698443968,153.22064150224162
140.576,140.576,342.6093751467389,511.86480952043746,153.3363071754314
140.582,140.582,343.29670020804565,513.364287725164,153.3548749489872
140.589,140.589,343.53701201214557,514.2683303437044,153.4955968794331
140.596,140.596,343.6340679223935,514.5611625979689,153.7365054917475
140.603,140.603,343.9138858439121,514.7989875406369,154.04812024439258
140.609,140.609,344.2218595563064,515.4227938585715,154.3925948856518
140.616,140.616,344.43541740804216,516.2615582252411,154.724930240286
140.623,140.623,344.4796617294478,517.1518326219303,154.99955718975994
140.63,140.63,344.6289349019102,517.9609368479515,155.17953124439242
140.636,140.636,344.9520238471073,518.5986894825829,155.24384213421396
140.643,140.643,345.4001835237451,519.0206946485432,155.29646662623077
140.65,140.65,345.91351526114954,519.2253701319636,155.4473919296582
140.657,140.657,346.4358380230536,519.2458065921228,155.66194430336552
140.663,140.663,346.92424980686116,519.35322219846,155.89696317654668
140.67,140.67,347.35401510187154,519.5207625109555,156.110008973671
140.677,140.677,347.71946378963617,519.6800520908095,156.2674611143645
140.684,140.684,348.03123389667803,519.7709225332721,156.3496890409491
140.69,140.69,348.31044866069703,519.7935770437792,156.35281293543596
140.697,140.697,348.5815062046434,519.9554849203014,156.41847477657865
140.704,140.704,348.8664929216115,520.2619239240346,156.53273800325022
140.711,140.711,349.1831181865806,520.7000478863265,156.67131552681542
140.717,140.717,349.5448621199943,521.244249714142,156.81129986683266
140.724,140.724,349.96114535193857,521.8636827034114,156.93529341252557
140.731,140.731,350.4371584240836,522.5300159184496,157.03387398363463
140.738,140.738,350.97383560162666,523.223098157653,157.1061647874569
140.744,140.744,351.5679945399571,523.9333330806284,157.15826420779533
140.751,140.751,352.2125052269197,524.6609670024587,157.1997856424041
140.758,140.758,352.8962660305409,525.4130941566027,157.23945520426906
140.765,140.765,353.60275895722845,526.1984171256481,157.28076022803106
140.771,140.771,354.3040341700654,527.0179677612509,157.31796286217195
140.778,140.778,354.9496332305715,527.8508335713209,157.3339269134924
140.785,140.785,355.4620245925131,528.6395247319463,157.36341110023864
140.792,140.792,355.75587692419714,529.2856337698926,157.45600142170943
140.798,140.798,355.7776527910899,529.666386855983,157.60707916133074
140.805,140.805,356.0197536177642,529.6725481203483,157.78496031992762
140.812,140.812,356.4593651887898,530.0930562534734,157.94191371476654
140.819,140.819,357.0021488678052,530.9092005916801,158.03308569096015
140.825,140.825,357.557645888725,532.0110143884964,158.03461947102588
140.832,140.832,358.0561447664623,533.2373903447993,158.13289498308794
140.839,140.839,358.4519633633213,534.412989073308,158.31313818636238
140.846,140.846,358.72222408739515,535.3834924390568,158.54952856767238
140.852,140.852,358.86563656877246,536.0425024413178,158.81109795155317
140.859,140.859,358.89983020265186,536.3453517122044,159.0644336269981
140.866,140.866,358.944303836795,536.3825839363925,159.27623567518992
140.873,140.873,359.0318114791094,536.6964393836921,159.41817976514795
140.879,140.879,359.12793674988666,537.1959391716591,159.4728423925515
140.886,140.886,359.2023588885461,537.7824804535105,159.50825137261458
140.893,140.893,359.23004839295794,538.3660410343547,159.62235425338025
140.9,140.9,359.2653722520885,538.8765223047276,159.79324614576768
140.906,140.906,359.3662300672337,539.2696189544614,159.99297089556813
140.913,140.913,359.5197436223912,539.5279077391855,160.19191366784642
140.92,140.92,359.6987919638765,539.6597099595455,160.36316701284048
140.927,140.927,359.8631778070505,539.697095338622,160.4865491158605
140.933,140.933,359.9637924459696,539.7023501593821,160.5515392148924
140.94,140.94,359.97568621404105,539.7185348587414,160.5581378781924
140.947,140.947,360.1378847469142,539.8223309361528,160.60093327757536
140.954,140.954,360.4695928289848,540.071257571349,160.6781060599244
140.96,140.96,360.96768721487297,540.5053754845254,160.77189018648838
140.967,140.967,361.60677980352733,541.1416161638476,160.864697890117
140.974,140.974,362.3422312917997,541.9705464405313,160.94097228112474
140.981,140.981,363.1120667866753,542.953468449178,160.9866570941161
140.987,140.987,363.8353023433855,544.0187762662347,160.98739692939367
140.994,140.994,364.4151641223379,545.0599499508854,161.04380771223083
141.001,141.001,364.75977335973397,545.9406397810671,161.1580319713345
141.008,141.008,364.81499085688216,546.5133637023031,161.30949620802463
141.014,141.014,365.0446836749307,546.6546633283893,161.4559614431365
141.021,141.021,365.5021721736917,547.001880477492,161.54509079884608
141.028,141.028,366.101593549594,547.8002070237537,161.55848105590837
141.035,141.035,366.75266036194216,548.9212059639038,161.69938579797466
141.041,141.041,367.3764113900299,550.1789840902679,161.96878929982674
141.048,141.048,367.9130993724719,551.3770861736855,162.34694866976452
141.055,141.055,368.32572066447807,552.3510361135886,162.79963201009693
141.062,141.062,368.60068880527297,552.9965574383743,163.2847958301372
141.068,141.068,368.7455176416486,553.2804159235907,163.75869504116312
141.075,141.075,368.78397079058215,553.3262042580747,164.1810502282608
141.082,141.082,368.8180260196428,553.6230783588526,164.51896102887062
141.089,141.089,368.88746215372544,554.0705599222537,164.74898716586293
141.095,141.095,368.9599777772727,554.5681651414724,164.8570725188072
141.102,141.102,369.01744698860114,555.0291430210957,164.87681306571122
141.109,141.109,369.0638916930699,555.3866628656275,165.02259027747576
141.116,141.116,369.127472319277,555.5960275053127,165.28402909919828
141.122,141.122,369.25266014425443,555.6358836139653,165.64088757219176
141.129,141.129,369.4823969208076,555.7620345877966,166.0630001681491
141.136,141.136,369.8360060264191,556.0252222440657,166.51253610790863
141.143,141.143,370.2924998590402,556.3736250330422,166.948636042731
141.149,141.149,370.7864942066843,556.7386676911941,167.33323634578826
141.156,141.156,371.21752399349157,557.0424334985981,167.6360829162541
141.163,141.163,371.4682677408974,557.2045293162281,167.8371784385336
141.17,141.17,371.51067693023816,557.2605319121222,167.92602039814463
141.176,141.176,371.93417435531126,557.5998759030365,167.95352216942348
141.183,141.183,372.7842502815729,558.2678521760299,168.09818613611915
141.19,141.19,374.05197333358984,559.2799816292005,168.35841448434397
141.197,141.197,375.66926904585995,560.6133000905966,168.72581480919004
141.203,141.203,377.5064298057244,562.2026662287464,169.17007361803002
141.21,141.21,379.3554276888759,563.9405627600133,169.62381692303413
141.217,141.217,380.9053899169317,565.6671342003663,170.00002517309375
141.224,141.224,381.7852649420803,567.156031247048,170.2380475104808
141.23,141.23,381.854412632967,568.1418712856881,170.33095806349056
141.237,141.237,382.9100995308241,568.4087027599292,170.3434519665939
141.244,141.244,384.73412507112863,568.9350577827835,170.39708475477687
141.251,141.251,386.95877849529955,570.1562431931461,170.4262248780086
141.257,141.257,389.19658505969136,571.8392741727222,170.47132722308987
141.264,141.264,391.13024774477145,573.6899966241024,170.6166074799438
141.271,141.271,392.5534519347525,575.4271627480371,170.86318699305258
141.278,141.278,393.3768725054542,576.8363109170601,171.18998904779343
141.284,141.284,393.6148129487146,577.7959191799135,171.55986738483742
141.291,141.291,393.86752582615486,578.2776688123578,171.9291108429471
141.298,141.298,394.4657204109993,578.329640778694,172.25674008603332
141.305,141.305,395.2478549792875,578.6077068649955,172.51058746184705
141.311,141.311,396.06570249549253,579.0915385104452,172.67034275423424
141.318,141.318,396.8036115215116,579.6574976968046,172.72839353687053
141.325,141.325,397.38696169753507,580.2019955076532,172.76807055529466
141.332,141.332,397.7821555916433,580.6530364108029,172.89252783503898
141.338,141.338,397.9908146779352,580.9735929615695,173.08325954411563
141.345,141.345,398.040803269258,581.1581327557245,173.31949267477336
141.352,141.352,398.10538213630105,581.2247050670643,173.58047079220495
141.359,141.359,398.2339503862247,581.2442327741126,173.8466036843152
141.365,141.365,398.3782929424316,581.3135814891451,174.10019303651563
141.372,141.372,398.49964615911205,581.3994699925028,174.3264292528123
141.379,141.379,398.5729121196284,581.4761506664772,174.51466929831358
141.386,141.386,398.58744272307035,581.5270947422682,174.65941989277093
141.392,141.392,398.62980775476603,581.5445434098724,174.76046282505772
141.399,141.399,398.7181423380488,581.5612285192751,174.82203569093255
141.406,141.406,398.8362860091615,581.6076687248116,174.85140050182216
141.413,141.413,398.9665685576634,581.6765582998129,174.8572197773588
141.419,141.419,399.0929871395345,581.7594430604505,174.86642876024192
141.426,141.426,399.20358670866244,581.8479889899572,174.8836391945189
141.433,141.433,399.2919346857869,581.934672585873,174.90431653119043
141.44,141.44,399.3575588591937,582.0129915287148,174.92686214290939
141.446,141.446,399.405263537515,582.0774539530124,174.95236219768697
141.453,141.453,399.44356906048637,582.1236299691157,174.98369810414732
141.46,141.46,399.48277954593107,582.1483121383853,175.02427354774994
141.467,141.467,399.5330080451311,582.149615483792,175.07674007372663
141.473,141.473,399.60231450597985,582.1722414568691,175.14205684584428
141.48,141.48,399.6952707361724,582.2179206958142,175.21905903075026
141.487,141.487,399.8123432351143,582.2841484188496,175.3045743179713
141.494,141.494,399.9502192363588,582.3667205583345,175.39399832016844
141.5,141.5,400.1028107374212,582.4600520914768,175.4821044483146
141.507,141.507,400.26249723150806,582.5578695321659,175.56382983365216
141.514,141.514,400.42130528625324,582.6540306921253,175.6348521871066
141.521,141.521,400.5718971964296,582.7432392751541,175.691844891245
141.527,141.527,400.70832638557124,582.8215549047283,175.73240035780825
141.534,141.534,400.82660972911356,582.8866933855935,175.75479456491632
141.541,141.541,400.92515693619663,582.9381291456588,175.75787033086036
141.548,141.548,401.0048932915451,582.9769709069578,175.77453517813797
141.554,141.554,401.06881144178436,583.0055673825128,175.81026748717406
141.561,141.561,401.1210138526786,583.0269109373528,175.86300777179642
141.568,141.568,401.16572619334977,583.044065326614,175.92925583586523
141.575,141.575,401.20668230156684,583.0598563794496,176.00422593054975
141.581,141.581,401.24688704865736,583.0768950279705,176.08211659580687
141.588,141.588,401.2884975677078,583.0977548269487,176.15642538184406
141.595,141.595,401.33256301329243,583.1250061540127,176.22032984196312
141.602,141.602,401.3788226942743,583.1610015699472,176.2673904031955
141.608,141.608,401.4260781446187,583.2075844944973,176.29283699706176
141.615,141.615,401.4730887817516,583.2658867493154,176.2951387621758
141.622,141.622,401.51934345192944,583.3361864363026,176.31321686696873
141.629,141.629,401.56517184999564,583.4177025572747,176.34475687516783
141.635,141.635,401.6111360433425,583.5083278133576,176.38022576421628
141.642,141.642,401.65715619157584,583.6045729595239,176.40992711253534
141.649,141.649,401.70196297065314,583.7020268244781,176.4264091484961
141.656,141.656,401.7431111895915,583.7962494802001,176.42680321634575
141.662,141.662,401.7774496827448,583.8836680815435,176.4435932877863
141.669,141.669,401.8018534135589,583.9621042843429,176.47297959508793
141.676,141.676,401.8139835023505,584.0308520923575,176.50941250777652
141.683,141.683,401.81514910793214,584.0904272879042,176.54730648636857
141.689,141.689,401.82915123351887,584.1421489634423,176.5824055729827
141.696,141.696,401.8541933504463,584.1877050520952,176.61253783496832
141.703,141.703,401.88745508778953,584.2288277689764,176.63763741088601
141.71,141.71,401.9254741901361,584.2671492559522,176.6590662039521
141.716,141.716,401.96453641007037,584.3042431406731,176.67854222583887
141.723,141.723,402.00103969892945,584.3417577375631,176.69720047007667
141.73,141.73,402.0318194686135,584.3814867257797,176.71518020292137
141.737,141.737,402.0543989647754,584.4252909738816,176.73173651945345
141.743,141.743,402.0671024625122,584.4748898619243,176.7456193995609
141.75,141.75,402.06904387121705,584.5316076086157,176.755473034938
141.757,141.757,402.0779695152967,584.5961719858445,176.76010509661066
141.764,141.764,402.0970217135112,584.6686138370086,176.76162103767663
141.77,141.77,402.1245810655127,584.7482708872682,176.76991051350373
141.777,141.777,402.1582849916049,584.8339009480554,176.78517019848576
141.784,141.784,402.1953677614478,584.9239159244485,176.80688333602507
141.791,141.791,402.23312400042903,585.0166971471234,176.83350163708738
141.797,141.797,402.26932579232493,585.1108953003034,176.86235591348225
141.804,141.804,402.3024269135762,585.2056403654434,176.89000213232706
141.811,141.811,402.33154842137486,585.3006294867544,176.91290500781682
141.818,141.818,402.3564150757256,585.3960784196133,176.92807987630636
141.824,141.824,402.37739765400113,585.4925718284507,176.93338152870226
141.831,141.831,402.39570279080215,585.5909189292372,176.9393226632186
141.838,141.838,402.4136633742017,585.6921233687332,176.95729210252378
141.845,141.845,402.4349958084034,585.7975048512812,176.9876249511945
141.851,141.851,402.4648350972554,585.90891431202,177.03025795215015
141.858,141.858,402.5094465241056,586.0288491274957,177.084651638059
141.865,141.865,402.5758343392473,586.1605147197901,177.1495366276287
141.872,141.872,402.6714210550741,586.3079704870737,177.22284740146938
141.878,141.878,402.80253387902576,586.4756791281583,177.30221620425203
141.885,141.885,402.97114074436087,586.6673974464743,177.38544430501173
141.892,141.892,403.1729683784761,586.88542263762,177.4699040074059
141.899,141.899,403.3974408723246,587.1295406180469,177.55093203321061
141.905,141.905,403.6259421884669,587.3944576854176,177.62089817185617
141.912,141.912,403.83075460646955,587.6665601244546,177.67051309381017
141.919,141.919,403.9795113939257,587.922101875053,177.69161334614958
141.926,141.926,404.04262135836655,588.128654423548,177.70384292122426
141.932,141.932,404.0874163564793,588.2497795461918,177.7500317535491
141.939,141.939,404.2541704571329,588.2508670435914,177.82685732622795
141.946,141.946,404.54850958516755,588.397631413808,177.92797902534696
141.953,141.953,404.9670402128712,588.7099221726869,178.04529946775037
141.959,141.959,405.4975430749169,589.1934272868192,178.17009819411786
141.966,141.966,406.12013870351166,589.8412324935658,178.29369160736962
141.973,141.973,406.80866088354674,590.6342529420699,178.4074824248822
141.98,141.98,407.532084654023,591.542605188279,178.50255510142546
141.986,141.986,408.2565769621584,592.5274877247717,178.56912986215562
141.993,141.993,408.94595234907496,593.5414452091151,178.59532713549692
142.0,142.0,409.5534142386292,594.5227112848754,178.6256228674774
142.007,142.007,410.00795072992815,595.3817972792134,178.73119404268917
142.013,142.013,410.2208468739291,595.991225506992,178.92202263029063
142.02,142.02,410.31639640982013,596.2000656432901,179.18174138584416
142.027,142.027,410.72351023167636,596.5207487452244,179.4588234883584
142.034,142.034,411.3760227184926,597.4235907794672,179.67773162338216
142.04,142.04,412.16852374934126,598.8499842523707,179.76486984438986
142.047,142.047,412.993362294356,600.6311269182778,179.85677853534946
142.054,142.054,413.7632086662675,602.5262801860124,180.1373171548914
142.061,142.061,414.417247094095,604.2819879659302,180.58021511284556
142.067,142.067,414.91922113944486,605.688867454721,181.1332325554932
142.074,142.074,415.254767853742,606.6202869139796,181.7309822855299
142.081,142.081,415.4300461749381,607.0474917131469,182.30704723515396
142.088,142.088,415.4693385197831,607.0634838607824,182.80329003284004
142.094,142.094,415.52939915420245,607.3990608263717,183.1755625366654
142.101,142.101,415.64809351255604,607.9051189599292,183.39577184309485
142.108,142.108,415.7889708508168,608.4410043138472,183.450659555561
142.115,142.115,415.9279594032435,608.8951229409938,183.56266781518516
142.121,142.121,416.06105034629036,609.1913759202821,183.83417304163768
142.128,142.128,416.20687500511065,609.2878644611629,184.24951656467096
142.135,142.135,416.39749995563636,609.400938779567,184.78379484130593
142.142,142.142,416.6570547259337,609.7009997324265,185.40163437795684
142.148,142.148,416.97760841250135,610.1316875334285,186.0576169048576
142.155,142.155,417.30586930410533,610.6040990427002,186.69962933320247
142.162,142.162,417.5489828319183,611.0042912639149,187.27481710642098
142.169,142.169,417.59747630607325,611.2089888638284,187.7366030617795
142.175,142.175,417.83968852179385,611.309699175808,188.05108613778373
142.182,142.182,418.43006979227755,611.7874582107006,188.20158779768377
142.189,142.189,419.3721166704607,612.6557680679966,188.2094830521601
142.196,142.196,420.59335543448805,613.8593213421146,188.3451832618474
142.202,142.202,421.9070850395922,615.2638272870079,188.56793955307649
142.209,142.209,423.02271606461517,616.6467632692805,188.8516343717145
142.216,142.216,423.6610453116984,617.7270846440059,189.18951573766384
142.223,142.223,423.6893218588502,618.2557410032431,189.58126824980948
142.229,142.229,424.2186187805186,618.3962350597492,190.02251221014927
142.236,142.236,425.12500114363615,619.1524383328646,190.49816514367367
142.243,142.243,426.1854035789954,620.3346794440373,190.978398807294
142.25,142.25,427.1988861842126,621.6917881173357,191.4212001986983
142.256,142.256,428.0195398324976,622.9853782529718,191.78118953507447
142.263,142.263,428.5664513797772,624.0406635392451,192.0195428137338
142.27,142.27,428.81845150520644,624.7687958946765,192.11090107889257
142.277,142.277,428.8381656066482,625.1647424535262,192.1749935502516
142.283,142.283,429.0790707953866,625.2875319516643,192.38508957887
142.29,142.29,429.4749143071577,625.3447682201523,192.71452177519967
142.297,142.297,429.9508368857097,625.4863108463256,193.12205592262242
142.304,142.304,430.42997803212444,625.6382450429953,193.55735786693344
142.31,142.31,430.8397109394524,625.7611139336856,193.96872693382448
142.317,142.317,431.11681454639495,625.8514887938695,194.31125784671187
142.324,142.324,431.2128000957409,625.9358719912314,194.55364592147188
142.331,142.331,431.32642309323813,626.060316217976,194.6820883503475
142.337,142.337,431.6552378502574,626.2783359279463,194.70051201078982
142.344,142.344,432.1824342329808,626.6393105291272,194.7733492674146
142.351,142.351,432.8720702206559,627.1790533704277,194.908717180739
142.358,142.358,433.67472636670897,627.9135375787632,195.07353255911926
142.364,142.364,434.5350873324975,628.8362649886932,195.23543078020867
142.371,142.371,435.3994036308188,629.9191577356946,195.36621351811368
142.378,142.378,436.2208392691574,631.1159268417214,195.44325146827185
142.385,142.385,436.9600260096991,632.365137362634,195.44829431922383
142.391,142.391,437.5744850589337,633.5880063395874,195.53330520159616
142.398,142.398,438.00112740953836,634.6775295933959,195.72906524397314
142.405,142.405,438.15975619230477,635.4886388430303,196.05110176511073
142.412,142.412,438.3269548856221,635.8551564768992,196.49109166275005
142.418,142.418,438.8138831043343,636.0655464225781,197.0041212833776
142.425,142.425,439.5475255288181,636.8884363628238,197.51690353007837
142.432,142.432,440.41926975213494,638.2345908812007,197.95172291838756
142.439,142.439,441.3199339352584,639.9095318054747,198.2507211668054
142.445,142.445,442.1595265672879,641.663911825212,198.39049160242573
142.452,142.452,442.87260725567785,643.2516314774132,198.39748306801766
142.459,142.459,443.418829692533,644.4792985709182,198.51272199214878
142.466,142.466,443.783472151721,645.2371249198067,198.68590437888622
142.472,142.472,443.9757272511073,645.5074976847826,198.86709413792303
142.479,142.479,444.0232150205773,645.6612569768791,199.01458544171913
142.486,142.486,444.08169059951103,646.1196583153904,199.09913648219424
142.493,142.493,444.2030439583997,646.7377321696518,199.10541480699527
142.499,142.499,444.34600732928703,647.3743494752342,199.17953389905756
142.506,142.506,444.4762285034687,647.914719138235,199.3250674795389
142.513,142.513,444.56915439449546,648.28333016235,199.52472681755683
142.52,142.52,444.60977659678275,648.4473989564217,199.75603578221578
142.526,142.526,444.6284255648944,648.4820591232983,199.99477737248392
142.533,142.533,444.7062918988213,648.681017060644,200.21814353059747
142.54,142.54,444.83892896270817,648.9953642160478,200.40662979200076
142.547,142.547,445.02124853337324,649.376153888582,200.54542869334088
142.553,142.553,445.24765962039265,649.785038389628,200.62661080349847
142.56,142.56,445.51022037205075,650.2000645354001,200.65142001085604
142.567,142.567,445.80115704080197,650.6172433519728,200.6721977630566
142.574,142.574,446.1182020988212,651.0480733868138,200.72064481633032
142.58,142.58,446.4656687893214,651.5128642468428,200.77545433058825
142.587,142.587,446.8498668725487,652.0305177937971,200.81551007564713
142.594,142.594,447.2727726994629,652.6076295439382,200.82302591262976
142.601,142.601,447.7257240071556,653.2313164005197,200.86014597351044
142.607,142.607,448.1823550858167,653.8690992024483,200.94701966777495
142.614,142.614,448.5934075788409,654.4762708550159,201.08170176703516
142.621,142.621,448.8903735258414,655.0079006782366,201.2568279269238
142.628,142.628,449.0014145451347,655.4301847305226,201.46253174186538
142.634,142.634,449.12973510121475,655.7263097960841,201.68860925707492
142.641,142.641,449.5169860469466,655.8958221711714,201.9246755059678
142.648,142.648,450.1462492855536,655.9501877552791,202.1591051205738
142.655,142.655,450.9706108491811,655.9928021726878,202.3782212846695
142.661,142.661,451.9220514162435,656.1122058302374,202.56655181155818
142.668,142.668,452.9211068399895,656.2900707283713,202.70814195597566
142.675,142.675,453.8886693230921,656.512823658456,202.78855544881554
142.682,142.682,454.7586678285361,656.7731199315659,202.79712351045987
142.688,142.688,455.4877006588849,657.0695404307297,202.86543719011786
142.695,142.695,456.05857850030435,657.4047625162578,203.00910230118606
142.702,142.702,456.47763180328116,657.7830750712087,203.22018031786124
142.709,142.709,456.7679689472302,658.2080651676123,203.4854899975036
142.715,142.715,456.9614594729602,658.6808960385155,203.7885191658051
142.722,142.722,457.09141667194075,659.1993656598595,204.11165891536479
142.729,142.729,457.18699811738713,659.7578656684287,204.4383129705043
142.736,142.736,457.26982890189214,660.3481629092691,204.7545391256214
142.742,142.742,457.35293312524306,660.9606551643254,205.05005103319255
142.749,142.749,457.4416092229772,661.585790960229,205.3185789844817
142.756,142.756,457.53551007925194,662.2155179590866,205.55769157573772
142.763,142.763,457.6309749570901,662.8444505465608,205.7682254708018
142.769,142.769,457.722875122445,663.4702948269078,205.95347350672526
142.776,142.776,457.8058096577099,664.0934377654797,206.1182622512793
142.783,142.783,457.8748906661026,664.7160069346573,206.26804279083817
142.79,142.79,457.9263360350318,665.340747546814,206.4080943152214
142.796,142.796,457.95787684166896,665.9700123605932,206.54289491815612
142.803,142.803,457.9689236727787,666.6050765820719,206.6756981006109
142.81,142.81,457.97732616674773,667.2458249244432,206.80835728015833
142.817,142.817,458.00271827856415,667.890734435684,206.94139538683135
142.823,142.823,458.0415847576546,668.5370365876591,207.07423233249594
142.83,142.83,458.08978223155435,669.1809533289252,207.20546867126527
142.837,142.837,458.143002823995,669.8179405900063,207.33317954349675
142.844,142.844,458.1972554552054,670.4429519486075,207.4552681202019
142.85,142.85,458.2492384412635,671.0509356387689,207.5697796068954
142.857,142.857,458.29645362594067,671.6379925543723,207.67473574345163
142.864,142.864,458.3373272602386,672.2031932128225,207.7676390767232
142.871,142.871,458.3719431298824,672.7497900166012,207.845596786822
142.877,142.877,458.402934190072,673.2840938499387,207.906224547286
142.884,142.884,458.4350285780719,673.8119634430872,207.9485492318719
142.891,142.891,458.4730852607359,674.3350887786331,207.97345057894586
142.898,142.898,458.5201461724711,674.8494827810564,207.9836595287842
142.904,142.904,458.576638379439,675.346655161369,207.9839033605128
142.911,142.911,458.6406125518009,675.8160211363495,207.98944741224534
142.918,142.918,458.7083711660307,676.2470071108013,207.99496354211078
142.925,142.925,458.77508778421316,676.6303733954904,207.9956478802319
142.931,142.931,458.8353781790975,676.9588576611012,208.00358990425886
142.938,142.938,458.88384743317994,677.2272801782057,208.02275869212917
142.945,142.945,458.91561922403037,677.4323212734918,208.0546098872698
142.952,142.952,458.9268730795182,677.5721303847326,208.09957520492011
142.958,142.958,458.938339020884,677.6457925012774,208.15715628547701
142.965,142.965,458.97253298837927,677.652810166368,208.2259761789413
142.972,142.972,459.02682324666273,677.7126976924031,208.30379409793338
142.979,142.979,459.09589689673686,677.8391816152275,208.3875094493158
142.985,142.985,459.1722616889271,678.0306395481672,208.47320222742442
142.992,142.992,459.24709099281415,678.2832240804455,208.5562882318419
142.999,142.999,459.31106073734577,678.5900792555924,208.63186404897323
143.006,143.006,459.3550436992518,678.9410374568085,208.69522740591128
143.012,143.012,459.3708315169065,679.3231060325564,208.74245942378036
143.019,143.019,459.3896953497583,679.7218857890565,208.7709099620326
143.026,143.026,459.4472489337153,680.123756107863,208.7794382044292
143.033,143.033,459.5449257957458,680.5182094952727,208.79053705532485
143.039,143.039,459.68184665469613,680.8995216792895,208.8198494224166
143.046,143.046,459.8553610210221,681.2672712765454,208.86522514321462
143.053,143.053,460.0616814768392,681.6257365715034,208.92406624309353
143.06,143.06,460.2966235095901,681.9824961010902,208.9934821383078
143.066,143.066,460.5564030764124,682.3466200473256,209.07036186270804
143.073,143.073,460.83825233412915,682.7268474848813,209.1514800592301
143.08,143.08,461.14062787461825,683.1301247679828,209.2337962922086
143.087,143.087,461.4629469904146,683.5607125211657,209.31502363225803
143.093,143.093,461.80494114470076,684.0198256490604,209.39435628448987
143.1,143.1,462.1659097634675,684.5057229993278,209.47309200829596
143.107,143.107,462.54427180272637,685.0142534513128,209.55482957588114
143.114,143.114,462.93765506638925,685.5397703707171,209.64502764229846
143.12,143.12,463.34342143488976,686.0761580916181,209.749968253912
143.127,143.127,463.75924826176004,686.6177363188621,209.8754201775689
143.134,143.134,464.1834012255762,687.159922717077,210.02541341098367
143.141,143.141,464.6146087923289,687.6995757178402,210.20145642529772
143.147,143.147,465.05170539359847,688.2349626207445,210.4023078718547
143.154,143.154,465.4933493575488,688.7654224289499,210.62423669418146
143.161,143.161,465.9380900242507,689.2908976859558,210.8616246340202
143.168,143.168,466.38476877133775,689.8114385874217,211.10773669885347
143.174,143.174,466.83295209069047,690.3267601918287,211.35550033773612
143.181,143.181,467.28309367845634,690.8360694173259,211.59816363455099
143.188,143.188,467.7362637416324,691.3383511508159,211.82975865163243
143.195,143.195,468.193386276122,691.833081477324,212.04537241326216
143.201,143.201,468.6541104874188,692.3212504393157,212.24126970293312
143.208,143.208,469.11568432558175,692.8066597341546,212.4149823335521
143.215,143.215,469.5720093362939,693.298144025223,212.56758655055097
143.222,143.222,469.9964890894849,693.8171392885937,212.7054459190477
143.228,143.228,470.2894134997437,694.4190287332277,212.82711305410928
143.235,143.235,470.32155455389466,695.2152666565158,212.9000605946799
143.242,143.242,470.8511073797257,696.3454048104975,212.94108070615135
143.249,143.249,471.8505135785666,697.8820118956422,213.16789570835905
143.255,143.255,473.0440586179413,699.7467882451612,213.63080402836522
143.262,143.262,474.0366932055791,701.7224926152057,214.34138206211585
143.269,143.269,474.4940310831407,703.5446348969523,215.26250871110642
143.276,143.276,474.7328423777053,704.9932451661907,216.30770388582474
143.282,143.282,475.63396381510245,705.9391225845637,217.3564746016405
143.289,143.289,477.0099390310956,706.3521390632932,218.2821574246255
143.296,143.296,478.5904181256512,706.4151586741418,218.9792269861937
143.303,143.303,480.09760842987436,706.8356714366697,219.38023217840143
143.309,143.309,481.3055008950488,707.4664908497117,219.46087903572263
143.316,143.316,482.0717878416702,708.1640976324073,219.68498090402576
143.323,143.323,482.34474138460894,708.8112567840554,220.16621485471214
143.33,143.33,482.53639841827766,709.3269746514371,220.83553422761534
143.336,143.336,483.1043385947587,709.6674793903454,221.61382006751475
143.343,143.343,483.9274735774247,709.8228247623954,222.42199365379167
143.35,143.35,484.8788317546384,709.834296501355,223.18939148522642
143.357,143.357,485.84665045177815,709.9728371353939,223.86079027265794
143.363,143.363,486.74723469815575,710.1848724934033,224.40166615503065
143.37,143.37,487.5302561037912,710.4106393337177,224.80044532062558
143.377,143.377,488.178293415459,710.5915458594724,225.0667855828567
143.384,143.384,488.702253321354,710.677032589376,225.22632211013524
143.39,143.39,489.13344018541073,710.7235636023499,225.31366097720147
143.397,143.397,489.51358707654623,710.9205991355632,225.36534224453285
143.404,143.404,489.8857383849858,711.2672578985528,225.4137789879737
143.411,143.411,490.2876671672663,711.7456979071918,225.48304437544647
143.417,143.417,490.74738180422463,712.3270244674184,225.58705474866676
143.424,143.424,491.28082971858686,712.9791077288434,225.7297984318662
143.431,143.431,491.89225487413677,713.6737520491131,225.90688313821974
143.438,143.438,492.5762309801552,714.3912370413341,226.10791205732042
143.444,143.444,493.3201021143788,715.1217630466858,226.31927586156417
143.451,143.451,494.10658108544004,715.8644182503864,226.52688428071554
143.458,143.458,494.91634636092056,716.6244793758799,226.71847890480007
143.465,143.465,495.73002302800313,717.409724044758,226.8854533131906
143.471,143.471,496.5293206828544,718.2264509429309,227.02437264750787
143.478,143.478,497.2976493559082,719.0757230247109,227.1383288062998
143.485,143.485,498.0181325571504,719.9489052528975,227.23789508660136
143.492,143.492,498.6630977375836,720.819357054422,227.3406780481054
143.498,143.498,499.1790455576095,721.6288314347916,227.4672998805769
143.505,143.505,499.49109543453693,722.2776831610612,227.63246797689524
143.512,143.512,499.5392454389958,722.6385548903868,227.83443115574138
143.519,143.519,499.76143488072984,722.676136379979,228.04998438642795
143.525,143.525,500.2018091306706,723.1541746134337,228.2395739494061
143.532,143.532,500.7753205996075,724.0221545129203,228.3604387013543
143.539,143.539,501.3927299911262,725.1509644307929,228.38118803114594
143.546,143.546,501.9767286641807,726.368939169094,228.47139203844304
143.552,143.552,502.4683687219604,727.5009029349746,228.6619695504875
143.559,143.559,502.8302990916748,728.4007531808384,228.92625834120963
143.566,143.566,503.0481673379137,728.9738120575034,229.22914337635984
143.573,143.573,503.12879358705413,729.1865755653001,229.53401096598165
143.579,143.579,503.1620854445715,729.3092657915297,229.80720406194817
143.586,143.586,503.2750184595949,729.6968361304508,230.01982866388917
143.593,143.593,503.4281164707222,730.2516684908194,230.1488694191071
143.6,143.6,503.5830072758232,730.8700985594177,230.17976387923738
143.606,143.606,503.7085474663462,731.4614102562736,230.24934539684716
143.613,143.613,503.7852587606572,731.9608136748922,230.4070400814248
143.62,143.62,503.80765830658936,732.3349762992185,230.62710234097486
143.627,143.627,503.83025288352127,732.5813476687598,230.875830152693
143.633,143.633,503.8757449984851,732.7226645880709,231.11882074877516
143.64,143.64,503.915214653009,732.7981716084145,231.32691899894854
143.647,143.647,503.91898856337156,732.8542683171481,231.4796168060303
143.654,143.654,503.97815322579436,732.9366502921122,231.56679047955845
143.66,143.66,504.1221769268555,733.0845336875918,231.58930586324573
143.667,143.667,504.36361899070107,733.3268904005214,231.62102075493854
143.674,143.674,504.70295690460784,733.6804086819052,231.69068499996322
143.681,143.681,505.128847164045,734.1489441731287,231.78051671730077
143.687,143.687,505.6199290741809,734.723930120504,231.8742605741495
143.694,143.694,506.1454802313807,735.3846392909766,231.95838348927262
143.701,143.701,506.6643080420537,736.097097970212,232.0225776930042
143.708,143.708,507.12481167126367,736.811962838589,232.06108231582988
143.714,143.714,507.4711191283912,737.464803958223,232.07516651185426
143.721,143.721,507.65735974787367,737.9833940931454,232.0752137339958
143.728,143.728,507.6637685623129,738.3023222541076,232.07992328719385
143.735,143.735,507.8242281950425,738.3791199215945,232.11168516928777
143.741,143.741,508.11311998260317,738.5526965640815,232.19006892394822
143.748,143.748,508.4808954007688,738.9462111187484,232.32678562356756
143.755,143.755,508.8790629253464,739.4930040286025,232.5242241592192
143.762,143.762,509.2666274073629,740.1006120665076,232.77722696757527
143.768,143.768,509.6124616072154,740.6685612575058,233.07641768267348
143.775,143.775,509.89617649268854,741.1089387471804,233.41150065411114
143.782,143.782,510.1086529651054,741.3633472553838,233.77336789787432
143.789,143.789,510.2518327399188,741.4117197759758,234.15422940339292
143.795,143.795,510.3369916865333,741.5516058930015,234.54581093032922
143.802,143.802,510.38170285074517,741.8326847398986,234.9369163799388
143.809,143.809,510.4064603746345,742.1925712231057,235.31233308524878
143.816,143.816,510.43135413044513,742.5688543134294,235.6540074998655
143.822,143.822,510.4724522293866,742.9111852026963,235.9435437288306
143.829,143.829,510.53805019231817,743.1871185945867,236.16463704896455
143.836,143.836,510.62556742708904,743.3806317891352,236.30472569967563
143.843,143.843,510.7193894233441,743.4848437176408,236.3555763092004
143.849,143.849,510.78995421887714,743.4946836026926,236.3977090131668
143.856,143.856,510.79632704862547,743.5836321381447,236.53106017396738
143.863,143.863,510.8971259420836,743.7703076227706,236.74656767278998
143.87,143.87,511.1338965930967,744.0425946786696,237.02685969915743
143.876,143.876,511.5033485032885,744.3746448054532,237.34720558896623
143.883,143.883,511.9588948888296,744.7272547652765,237.67861420770944
143.89,143.89,512.4124396428634,745.0498598972619,237.99215650519412
143.897,143.897,512.7490784094718,745.2830829968179,238.26268987978844
143.903,143.903,512.8491067083054,745.3623619383234,238.47047320337185
143.91,143.91,513.0874983987563,745.5005114747755,238.60051218463698
143.917,143.917,513.7292802509064,745.9090497552196,238.64084066747074
143.924,143.924,514.7899901858354,746.619261860116,238.70015054345646
143.93,143.93,516.231327847172,747.6302537047009,238.86617122272818
143.937,143.937,517.9644583393892,748.9019563532695,239.13495539291443
143.944,143.944,519.8423867001005,750.3511249152476,239.47840888445316
143.951,143.951,521.6290221172173,751.8408878484906,239.85440469392432
143.957,143.957,523.0124236456668,753.1656868410744,240.24087843015292
143.964,143.964,523.7243893220491,754.06733787491,240.65009147734906
143.971,143.971,523.7721199089616,754.3107171922671,241.11429188160565
143.978,143.978,524.4598811426769,754.8374144254587,241.6657414119764
143.984,143.984,525.5379704643512,756.0676374900924,242.31735756301148
143.991,143.991,526.731420192497,757.7782323480802,243.04989905391773
143.998,143.998,527.8144347980113,759.6643007157617,243.81464854763823
144.005,144.005,528.6422827167694,761.4242787374577,244.54776750015412
144.011,144.011,529.1523255589659,762.8248117386066,245.18652825666712
144.018,144.018,529.3498118225675,763.7334828880257,245.6821454482558
144.025,144.025,529.4097343709852,764.1207421073796,246.00775936937018
144.032,144.032,529.6412360939368,764.2004128957905,246.16009898975832
144.038,144.038,529.9490749256504,764.6368533283226,246.16521240563083
144.045,144.045,530.2482071191981,765.2948246867511,246.29973441688358
144.052,144.052,530.4764319271356,766.0416379867197,246.52914326935982
144.059,144.059,530.5985605394861,766.7674902225522,246.8168097319941
144.065,144.065,530.6042537195153,767.3964394152428,247.1279502711807
144.072,144.072,530.7056712831221,767.8885511809158,247.4334018039645
144.079,144.079,530.8911947033617,768.2355621231378,247.71261386063662
144.086,144.086,531.1302428652929,768.4530213137666,247.95497697029833
144.092,144.092,531.3905484773642,768.571347026373,248.15904851555104
144.099,144.099,531.6432852051661,768.6273111074465,248.33003188705794
144.106,144.106,531.8669346156961,768.6568959612945,248.47646314469617
144.113,144.113,532.0494375140353,768.6901640153962,248.6071677305212
144.119,144.119,532.1883611047825,768.7484044665084,248.72926588444605
144.126,144.126,532.2893919954299,768.8433904806266,248.8474906719447
144.133,144.133,532.3637566003572,768.9782286310668,248.96447373290655
144.14,144.14,532.4250440429665,769.1491478676535,249.08130096337874
144.146,144.146,532.4860322879935,769.3476630205483,249.1977989499709
144.153,144.153,532.5562590089397,769.562721578127,249.31247188802837
144.16,144.16,532.6407228452255,769.7825867649401,249.42235658391863
144.167,144.167,532.7396631346232,769.9963083257562,249.5231327162491
144.173,144.173,532.8492064861251,770.1947313835581,249.6096699793903
144.18,144.18,532.9626040060097,770.3710648287946,249.6769153685017
144.187,144.187,533.0717639727993,770.5210554695155,249.72084244569174
144.194,144.194,533.168790988182,770.6428533024579,249.73922577918788
144.2,144.2,533.2471928774502,770.7366735062504,249.74633349259398
144.207,144.207,533.3025246373028,770.8043163599453,249.77648842077465
144.214,144.214,533.3325509917895,770.8485893973851,249.82514690250002
144.221,144.221,533.337171661425,770.8727610363342,249.8863230783054
144.227,144.227,533.356116459689,770.8802151727422,249.95346061215744
144.234,144.234,533.3951918646612,770.8860793362135,250.02030717677997
144.241,144.241,533.4497920373549,770.9017802489425,250.0815840217094
144.248,144.248,533.514443866535,770.923630094263,250.1333270102493
144.254,144.254,533.5830042859023,770.9477014269962,250.17294160887056
144.261,144.261,533.649007467827,770.9700261434766,250.1991033613714
144.268,144.268,533.7063162097319,770.9870406261922,250.21157885484075
144.275,144.275,533.749941264747,770.9961206540341,250.21215786762457
144.281,144.281,533.7767078162399,770.9962534905042,250.2245061422905
144.288,144.288,533.7854971851561,771.005380597172,250.24688029626822
144.295,144.295,533.7940009719728,771.0219230699529,250.27737920894288
144.302,144.302,533.8178570971246,771.0433781991944,250.31437796149925
144.308,144.308,533.8543002716762,771.0669508057641,250.35685687009962
144.315,144.315,533.8998714273032,771.0900961924084,250.4043839666692
144.322,144.322,533.9505125425156,771.1107693627616,250.4568186439032
144.329,144.329,534.0018976601875,771.1274432539869,250.5139723407722
144.335,144.335,534.0498863385207,771.1390225584091,250.57533146953963
144.342,144.342,534.090842618732,771.1446600932444,250.63983149669323
144.349,144.349,534.1217735869342,771.1458211668453,250.70573143808392
144.356,144.356,534.140430565568,771.1548296195997,250.77067672679104
144.362,144.362,534.1455315922956,771.1728691886146,250.83191609376846
144.369,144.369,534.1538796249462,771.200898129138,250.8865308310948
144.376,144.376,534.1737661654971,771.2390981471375,250.93161052802662
144.383,144.383,534.2016573392302,771.286478788091,250.96449278797735
144.389,144.389,534.2335842102952,771.3410259875435,250.98338576096558
144.396,144.396,534.2667445181766,771.4003669480505,250.9885739608165
144.403,144.403,534.3001793790412,771.4623769373537,250.99347574801308
144.41,144.41,534.3339956772953,771.5252249593766,251.00132147495137
144.416,144.416,534.3680858085221,771.5870364331219,251.0028932591362
144.423,144.423,534.40149805102,771.6458086716011,251.01622383298152
144.43,144.43,534.4325649749503,771.6998927259871,251.0497415365586
144.437,144.437,534.4592031721531,771.7486652092941,251.10361498036892
144.443,144.443,534.4791181767279,771.7928500994364,251.17275527331353
144.45,144.45,534.4901817474849,771.8343647038616,251.24833041237332
144.457,144.457,534.4911340278259,771.8758790887913,251.32023619867607
144.464,144.464,534.5000430333505,771.9202841797998,251.37949333504028
144.47,144.47,534.5169478402048,771.9701743160446,251.4199002926237
144.477,144.477,534.5387861044097,772.0274075458939,251.43878269939063
144.484,144.484,534.5618786880691,772.092834638517,251.44067857143324
144.491,144.491,534.5824318025155,772.1662949840168,251.46001289992094
144.497,144.497,534.5969689027837,772.2468766096587,251.49210199680732
144.504,144.504,534.6027243411587,772.3332989408738,251.53215471422033
144.511,144.511,534.6075473154716,772.4242571807299,251.5761159279041
144.518,144.518,534.6237755330952,772.5186600845238,251.62097445276635
144.524,144.524,534.6515138270213,772.6157627880201,251.6646412012021
144.531,144.531,534.6904997469721,772.7152318486282,251.70563965046392
144.538,144.538,534.7403681287475,772.8171910695297,251.74280269911915
144.545,144.545,534.8006762425193,772.9222343108181,251.7749947299084
144.551,144.551,534.8707156898561,773.0313346716857,251.80085764013685
144.558,144.558,534.9493354249964,773.1456236365725,251.81870818914683
144.565,144.565,535.034997024689,773.2660940614278,251.8266496338744
144.572,144.572,535.1260888883291,773.3933022200796,251.83051453688992
144.578,144.578,535.2214042462365,773.5271338967129,251.84787459402114
144.585,144.585,535.3206918349175,773.6667338492072,251.87999521164141
144.592,144.592,535.425138929862,773.8107329611812,251.9274439868688
144.599,144.599,535.5376827081221,773.9578085820704,251.9897426699408
144.605,144.605,535.6626481878405,774.107272572804,252.06516239103354
144.612,144.612,535.8046880365401,774.259665704417,252.15078526517743
144.619,144.619,535.9695845579898,774.4186189677077,252.24233278497496
144.626,144.626,536.1665566264658,774.5941252411983,252.33377795753984
144.632,144.632,536.4055706713311,774.8037241666864,252.4179552601224
144.639,144.639,536.6887651960351,775.0681619573601,252.48886089798526
144.646,144.646,537.0039618423912,775.4021288967117,252.5441527139873
144.653,144.653,537.3247177037499,775.8039790460506,252.58516811894
144.659,144.659,537.6141171712088,776.2491325345147,252.6141409779476
144.666,144.666,537.8293530666942,776.6898282970676,252.63113718245816
144.673,144.673,537.927284989726,777.0611248134493,252.63255893671862
144.68,144.68,537.9833896168686,777.2916033186191,252.6537938201496
144.686,144.686,538.2175880607958,777.3161268168783,252.7067551121785
144.693,144.693,538.6372781972323,777.5450015991249,252.80010176406333
144.7,144.7,539.2319070281745,778.0494630239617,252.93928204681444
144.707,144.707,539.9736461288592,778.8231652813348,253.12379142962246
144.713,144.713,540.8195532228752,779.8313312605741,253.34488255246544
144.72,144.72,541.7156202508223,781.0137662840632,253.58424783127413
144.727,144.727,542.6030211339622,782.2909877744981,253.81444098084543
144.734,144.734,543.4236357157008,783.5718181902677,254.00073426719067
144.74,144.74,544.1171573917173,784.7570222689798,254.10290230428305
